{
    "resourceType": "Bundle",
    "id": "AHCHRSNQuestionnaireResponseExample",
    "meta": {
        "lastUpdated": "2024-02-23T00:00:00Z",
        "profile": [
            "http://shinny.org/us/ny/hrsn/StructureDefinition/SHINNYBundleProfile"
        ]
    },
    "type": "transaction",
    "timestamp": "2024-02-23T00:00:00Z",
    "entry": [
        {
            "fullUrl": "http://shinny.org/us/ny/hrsn/Patient/PatientExample",
            "resource": {
                "resourceType": "Patient",
                "id": "PatientExample",
                "meta": {
                    "lastUpdated": "2024-02-23T00:00:00.00Z",
                    "profile": [
                        "http://shinny.org/us/ny/hrsn/StructureDefinition/shinny-patient"
                    ]
                },
                "language": "en",
                "text": {
                    "status": "generated",
                    "div": "<div xmlns=\"http://www.w3.org/1999/xhtml\" xml:lang=\"en\" lang=\"en\"><a name=\"Patient_PatientExample\"> </a><p class=\"res-header-id\"><b>Generated Narrative: Patient PatientExample</b></p><a name=\"PatientExample\"> </a><a name=\"hcPatientExample\"> </a><div style=\"display: inline-block; background-color: #d9e0e7; padding: 6px; margin: 4px; border: 1px solid #8da1b4; border-radius: 5px; line-height: 60%\"><p style=\"margin-bottom: 0px\">Last updated: 2024-02-23 00:00:00+0000; Language: en</p><p style=\"margin-bottom: 0px\">Profile: <a href=\"StructureDefinition-shinny-patient.html\">SHINNY Patient Profile</a></p></div><p style=\"border: 1px #661aff solid; background-color: #e6e6ff; padding: 10px;\">Jon Doe  Male, DoB: 1981-07-16 ( Medical record number)</p><hr/><table class=\"grid\"><tr><td style=\"background-color: #f3f5da\" title=\"Other Ids (see the one above)\">Other Ids:</td><td colspan=\"3\"><ul><li>Patient Medicaid number/AA12345C</li><li>Social Security Number/999-34-2964</li></ul></td></tr><tr><td style=\"background-color: #f3f5da\" title=\"Ways to contact the Patient\">Contact Detail</td><td colspan=\"3\"><ul><li>ph: 555-120-6047(Home)</li><li>115 Broadway Apt2 New York, NY 10032</li></ul></td></tr><tr><td style=\"background-color: #f3f5da\" title=\"Language spoken\">Language:</td><td colspan=\"3\"><span title=\"Codes:{urn:ietf:bcp:47 en}\">English</span> (preferred)</td></tr><tr><td style=\"background-color: #f3f5da\" title=\"Nominated Contact: Mother\">Mother:</td><td colspan=\"3\"><ul><li>Joyce Doe </li><li><a href=\"tel:+1234567890\">+1234567890</a></li></ul></td></tr><tr><td style=\"background-color: #f3f5da\" title=\"Concepts classifying the person into a named category of humans sharing common history, traits, geographical origin or nationality.  The ethnicity codes used to represent these concepts are based upon the [CDC ethnicity and Ethnicity Code Set Version 1.0](http://www.cdc.gov/phin/resources/vocabulary/index.html) which includes over 900 concepts for representing race and ethnicity of which 43 reference ethnicity.  The ethnicity concepts are grouped by and pre-mapped to the 2 OMB ethnicity categories: - Hispanic or Latino - Not Hispanic or Latino.\">US Core Ethnicity Extension:</td><td colspan=\"3\"><ul><li>ombCategory: <a href=\"http://hl7.org/fhir/us/core/STU3.1.1/CodeSystem-cdcrec.html#cdcrec-2135-2\">Race &amp; Ethnicity - CDC 2135-2</a>: Hispanic or Latino</li><li>text: Hispanic or Latino</li></ul></td></tr><tr><td style=\"background-color: #f3f5da\" title=\"A code classifying the person's sex assigned at birth  as specified by the [Office of the National Coordinator for Health IT (ONC)](https://www.healthit.gov/newsroom/about-onc). This extension aligns with the C-CDA Birth Sex Observation (LOINC 76689-9).\"><a href=\"http://hl7.org/fhir/us/core/STU3.1.1/StructureDefinition-us-core-birthsex.html\">US Core Birth Sex Extension</a></td><td colspan=\"3\">M</td></tr><tr><td style=\"background-color: #f3f5da\" title=\"Concepts classifying the person into a named category of humans sharing common history, traits, geographical origin or nationality.  The race codes used to represent these concepts are based upon the [CDC Race and Ethnicity Code Set Version 1.0](http://www.cdc.gov/phin/resources/vocabulary/index.html) which includes over 900 concepts for representing race and ethnicity of which 921 reference race.  The race concepts are grouped by and pre-mapped to the 5 OMB race categories:\n\n - American Indian or Alaska Native\n - Asian\n - Black or African American\n - Native Hawaiian or Other Pacific Islander\n - White.\">US Core Race Extension:</td><td colspan=\"3\"><ul><li>ombCategory: <a href=\"http://hl7.org/fhir/us/core/STU3.1.1/CodeSystem-cdcrec.html#cdcrec-2028-9\">Race &amp; Ethnicity - CDC 2028-9</a>: Asian</li><li>ombCategory: <a href=\"http://hl7.org/fhir/us/core/STU3.1.1/CodeSystem-cdcrec.html#cdcrec-1002-5\">Race &amp; Ethnicity - CDC 1002-5</a>: American Indian or Alaska Native</li><li>detailed: <a href=\"http://hl7.org/fhir/us/core/STU3.1.1/CodeSystem-cdcrec.html#cdcrec-1010-8\">Race &amp; Ethnicity - CDC 1010-8</a>: Apache</li><li>text: Asian, American Indian, Apache</li></ul></td></tr><tr><td style=\"background-color: #f3f5da\" title=\"This extension represents an individual's sense of being a man, woman, boy, girl, nonbinary, or something else, ascertained by asking them what that identity is.\"><a href=\"StructureDefinition-shinny-gender-identity.html\">SHINNYGenderIdentityExtension</a></td><td colspan=\"3\"><span title=\"Codes:{http://snomed.info/sct 446151000124109}\">Identifies as male gender (finding)</span></td></tr><tr><td style=\"background-color: #f3f5da\" title=\"Personal Pronouns\"><a href=\"StructureDefinition-shinny-personal-pronouns.html\">SHINNY Personal Pronouns</a></td><td colspan=\"3\"><span title=\"Codes:{http://loinc.org LA29518-0}\">he/him/his/his/himself</span></td></tr></table></div>"
                },
                "extension": [
                    {
                        "extension": [
                            {
                                "url": "ombCategory",
                                "valueCoding": {
                                    "system": "urn:oid:2.16.840.1.113883.6.238",
                                    "code": "2028-9",
                                    "display": "Asian"
                                }
                            },
                            {
                                "url": "ombCategory",
                                "valueCoding": {
                                    "system": "urn:oid:2.16.840.1.113883.6.238",
                                    "code": "1002-5",
                                    "display": "American Indian or Alaska Native"
                                }
                            },
                            {
                                "url": "detailed",
                                "valueCoding": {
                                    "system": "urn:oid:2.16.840.1.113883.6.238",
                                    "code": "1010-8",
                                    "display": "Apache"
                                }
                            },
                            {
                                "url": "text",
                                "valueString": "Asian, American Indian, Apache"
                            }
                        ],
                        "url": "http://hl7.org/fhir/us/core/StructureDefinition/us-core-race"
                    },
                    {
                        "extension": [
                            {
                                "url": "ombCategory",
                                "valueCoding": {
                                    "system": "urn:oid:2.16.840.1.113883.6.238",
                                    "code": "2135-2",
                                    "display": "Hispanic or Latino"
                                }
                            },
                            {
                                "url": "text",
                                "valueString": "Hispanic or Latino"
                            }
                        ],
                        "url": "http://hl7.org/fhir/us/core/StructureDefinition/us-core-ethnicity"
                    },
                    {
                        "url": "http://hl7.org/fhir/us/core/StructureDefinition/us-core-birthsex",
                        "valueCode": "M"
                    },
                    {
                        "url": "http://shinny.org/us/ny/hrsn/StructureDefinition/shinny-personal-pronouns",
                        "valueCodeableConcept": {
                            "coding": [
                                {
                                    "system": "http://loinc.org",
                                    "code": "LA29518-0",
                                    "display": "he/him/his/his/himself"
                                }
                            ]
                        }
                    },
                    {
                        "url": "http://shinny.org/us/ny/hrsn/StructureDefinition/shinny-gender-identity",
                        "valueCodeableConcept": {
                            "coding": [
                                {
                                    "system": "http://snomed.info/sct",
                                    "code": "446151000124109",
                                    "display": "Identifies as male gender (finding)"
                                }
                            ]
                        }
                    }
                ],
                "identifier": [
                    {
                        "type": {
                            "coding": [
                                {
                                    "system": "http://terminology.hl7.org/CodeSystem/v2-0203",
                                    "code": "MR"
                                }
                            ]
                        },
                        "system": "http://www.scn.gov/facility/CUMC",
                        "value": "11223344",
                        "assigner": {
                            "reference": "Organization/OrganizationExampleOther-SCN1"
                        }
                    },
                    {
                        "type": {
                            "coding": [
                                {
                                    "system": "http://terminology.hl7.org/CodeSystem/v2-0203",
                                    "code": "MA"
                                }
                            ]
                        },
                        "system": "http://www.medicaid.gov/",
                        "value": "AA12345C"
                    },
                    {
                        "type": {
                            "coding": [
                                {
                                    "system": "http://terminology.hl7.org/CodeSystem/v2-0203",
                                    "code": "SS",
                                    "display": "Social Security Number"
                                }
                            ],
                            "text": "Social Security Number"
                        },
                        "system": "http://www.ssa.gov/",
                        "value": "999-34-2964"
                    }
                ],
                "name": [
                    {
                        "extension": [
                            {
                                "url": "http://shinny.org/us/ny/hrsn/StructureDefinition/middle-name",
                                "valueString": "Bob"
                            }
                        ],
                        "family": "Doe",
                        "given": [
                            "Jon"
                        ],
                        "prefix": [
                            "Mr.",
                            "Dr.",
                            "PhD",
                            "CCNA"
                        ],
                        "suffix": [
                            "Jr.",
                            "III"
                        ]
                    }
                ],
                "telecom": [
                    {
                        "system": "phone",
                        "value": "555-120-6047",
                        "use": "home"
                    }
                ],
                "gender": "male",
                "birthDate": "1981-07-16",
                "address": [
                    {
                        "text": "115 Broadway Apt2 New York, NY 10032",
                        "line": [
                            "115 Broadway Apt2"
                        ],
                        "city": "New York",
                        "district": "MANHATTAN",
                        "state": "NY",
                        "postalCode": "10032"
                    }
                ],
                "contact": [
                    {
                        "relationship": [
                            {
                                "coding": [
                                    {
                                        "system": "http://terminology.hl7.org/CodeSystem/v2-0063",
                                        "code": "MTH",
                                        "display": "Mother"
                                    }
                                ]
                            }
                        ],
                        "name": {
                            "family": "Doe",
                            "given": [
                                "Joyce"
                            ]
                        },
                        "telecom": [
                            {
                                "system": "phone",
                                "value": "+1234567890"
                            }
                        ]
                    }
                ],
                "communication": [
                    {
                        "language": {
                            "coding": [
                                {
                                    "system": "urn:ietf:bcp:47",
                                    "code": "en"
                                }
                            ]
                        },
                        "preferred": true
                    }
                ]
            },
            "request": {
                "method": "POST",
                "url": "http://shinny.org/us/ny/hrsn/Patient/PatientExample"
            }
        },
        {
            "fullUrl": "http://shinny.org/us/ny/hrsn/Observation/SexualOrientationExample",
            "resource": {
                "resourceType": "Observation",
                "id": "SexualOrientationExample",
                "meta": {
                    "lastUpdated": "2024-02-23T00:00:00Z",
                    "profile": [
                        "http://shinny.org/us/ny/hrsn/StructureDefinition/shinny-observation-sexual-orientation"
                    ]
                },
                "text": {
                    "status": "generated",
                    "div": "<div xmlns=\"http://www.w3.org/1999/xhtml\"><a name=\"Observation_SexualOrientationExample\"> </a><p class=\"res-header-id\"><b>Generated Narrative: Observation SexualOrientationExample</b></p><a name=\"SexualOrientationExample\"> </a><a name=\"hcSexualOrientationExample\"> </a><div style=\"display: inline-block; background-color: #d9e0e7; padding: 6px; margin: 4px; border: 1px solid #8da1b4; border-radius: 5px; line-height: 60%\"><p style=\"margin-bottom: 0px\">Last updated: 2024-02-23 00:00:00+0000</p><p style=\"margin-bottom: 0px\">Profile: <a href=\"StructureDefinition-shinny-observation-sexual-orientation.html\">SHINNYObservationSexualOrientationProfile</a></p></div><p><b>status</b>: Final</p><p><b>code</b>: <span title=\"Codes:{http://loinc.org 76690-7}\">Sexual orientation</span></p><p><b>subject</b>: <a href=\"Patient-PatientExample.html\">Jon Doe  Male, DoB: 1981-07-16 ( Medical record number)</a></p><p><b>value</b>: <span title=\"Codes:{http://terminology.hl7.org/CodeSystem/v3-NullFlavor UNK}\">Unknown</span></p></div>"
                },
                "status": "final",
                "code": {
                    "coding": [
                        {
                            "system": "http://loinc.org",
                            "code": "76690-7",
                            "display": "Sexual orientation"
                        }
                    ]
                },
                "subject": {
                    "reference": "Patient/PatientExample"
                },
                "valueCodeableConcept": {
                    "coding": [
                        {
                            "system": "http://terminology.hl7.org/CodeSystem/v3-NullFlavor",
                            "code": "UNK",
                            "display": "Unknown"
                        }
                    ]
                }
            },
            "request": {
                "method": "POST",
                "url": "http://shinny.org/us/ny/hrsn/Observation/SexualOrientationExample"
            }
        },
        {
            "fullUrl": "http://shinny.org/us/ny/hrsn/Encounter/EncounterExample",
            "resource": {
                "resourceType": "Encounter",
                "id": "EncounterExample",
                "meta": {
                    "lastUpdated": "2024-02-23T00:00:00Z",
                    "profile": [
                        "http://shinny.org/us/ny/hrsn/StructureDefinition/shinny-encounter"
                    ]
                },
                "text": {
                    "status": "generated",
                    "div": "<div xmlns=\"http://www.w3.org/1999/xhtml\"><a name=\"Encounter_EncounterExample\"> </a><p class=\"res-header-id\"><b>Generated Narrative: Encounter EncounterExample</b></p><a name=\"EncounterExample\"> </a><a name=\"hcEncounterExample\"> </a><div style=\"display: inline-block; background-color: #d9e0e7; padding: 6px; margin: 4px; border: 1px solid #8da1b4; border-radius: 5px; line-height: 60%\"><p style=\"margin-bottom: 0px\">Last updated: 2024-02-23 00:00:00+0000</p><p style=\"margin-bottom: 0px\">Profile: <a href=\"StructureDefinition-shinny-encounter.html\">SHINNY Encounter Profile</a></p></div><p><b>status</b>: Finished</p><p><b>class</b>: <a href=\"http://terminology.hl7.org/6.0.2/CodeSystem-v3-ActCode.html#v3-ActCode-FLD\">ActCode FLD</a>: field</p><p><b>type</b>: <span title=\"Codes:{http://snomed.info/sct 405672008}\">Direct questioning (procedure)</span></p><p><b>subject</b>: <a href=\"Patient-PatientExample.html\">Jon Doe  Male, DoB: 1981-07-16 ( Medical record number)</a></p><p><b>period</b>: 2024-02-23 00:00:00+0000 --&gt; 2024-02-23 01:00:00+0000</p><h3>Locations</h3><table class=\"grid\"><tr><td style=\"display: none\">-</td><td><b>Location</b></td></tr><tr><td style=\"display: none\">*</td><td><a href=\"Location-LocationExample-SCN.html\">Location downtown location</a></td></tr></table></div>"
                },
                "status": "finished",
                "class": {
                    "system": "http://terminology.hl7.org/CodeSystem/v3-ActCode",
                    "code": "FLD"
                },
                "type": [
                    {
                        "coding": [
                            {
                                "system": "http://snomed.info/sct",
                                "code": "405672008",
                                "display": "Direct questioning (procedure)"
                            }
                        ],
                        "text": "Direct questioning (procedure)"
                    }
                ],
                "subject": {
                    "reference": "Patient/PatientExample"
                },
                "period": {
                    "start": "2024-02-23T00:00:00Z",
                    "end": "2024-02-23T01:00:00Z"
                },
                "location": [
                    {
                        "location": {
                            "reference": "Location/LocationExample-SCN"
                        }
                    }
                ]
            },
            "request": {
                "method": "POST",
                "url": "http://shinny.org/us/ny/hrsn/Encounter/EncounterExample"
            }
        },
        {
            "fullUrl": "http://shinny.org/us/ny/hrsn/Consent/ConsentExample",
            "resource": {
                "resourceType": "Consent",
                "id": "ConsentExample",
                "meta": {
                    "lastUpdated": "2024-02-23T00:00:00Z",
                    "profile": [
                        "http://shinny.org/us/ny/hrsn/StructureDefinition/shinny-Consent"
                    ]
                },
                "text": {
                    "status": "generated",
                    "div": "<div xmlns=\"http://www.w3.org/1999/xhtml\"><a name=\"Consent_ConsentExample\"> </a><p class=\"res-header-id\"><b>Generated Narrative: Consent ConsentExample</b></p><a name=\"ConsentExample\"> </a><a name=\"hcConsentExample\"> </a><div style=\"display: inline-block; background-color: #d9e0e7; padding: 6px; margin: 4px; border: 1px solid #8da1b4; border-radius: 5px; line-height: 60%\"><p style=\"margin-bottom: 0px\">Last updated: 2024-02-23 00:00:00+0000</p><p style=\"margin-bottom: 0px\">Profile: <a href=\"StructureDefinition-shinny-Consent.html\">SHINNY Consent Profile</a></p></div><p><b>status</b>: Active</p><p><b>scope</b>: <span title=\"Codes:{http://terminology.hl7.org/CodeSystem/consentscope treatment}\">treatment</span></p><p><b>category</b>: <span title=\"Codes:{http://loinc.org 59284-0}\">Consent Document</span>, <span title=\"Codes:{http://terminology.hl7.org/CodeSystem/v3-ActCode IDSCL}\">information disclosure</span></p><p><b>patient</b>: <a href=\"Patient-PatientExample.html\">Jon Doe  Male, DoB: 1981-07-16 ( Medical record number)</a></p><p><b>dateTime</b>: 2024-02-23 00:00:00+0000</p><p><b>organization</b>: <a href=\"Organization-OrganizationExampleOther-SCN1.html\">Organization Care Ridge SCN</a></p><p><b>source</b>: </p><h3>Policies</h3><table class=\"grid\"><tr><td style=\"display: none\">-</td><td><b>Authority</b></td></tr><tr><td style=\"display: none\">*</td><td>urn:uuid:d1eaac1a-22b7-4bb6-9c62-cc95d6fdf1a5</td></tr></table><h3>Provisions</h3><table class=\"grid\"><tr><td style=\"display: none\">-</td><td><b>Type</b></td></tr><tr><td style=\"display: none\">*</td><td>Opt In</td></tr></table></div>"
                },
                "status": "active",
                "scope": {
                    "coding": [
                        {
                            "system": "http://terminology.hl7.org/CodeSystem/consentscope",
                            "code": "treatment",
                            "display": "Treatment"
                        }
                    ],
                    "text": "treatment"
                },
                "category": [
                    {
                        "coding": [
                            {
                                "system": "http://loinc.org",
                                "code": "59284-0",
                                "display": "Consent Document"
                            }
                        ]
                    },
                    {
                        "coding": [
                            {
                                "system": "http://terminology.hl7.org/CodeSystem/v3-ActCode",
                                "code": "IDSCL"
                            }
                        ]
                    }
                ],
                "patient": {
                    "reference": "Patient/PatientExample"
                },
                "dateTime": "2024-02-23T00:00:00Z",
                "organization": [
                    {
                        "reference": "Organization/OrganizationExampleOther-SCN1"
                    }
                ],
                "sourceAttachment": {
                    "contentType": "application/pdf",
                    "language": "en"
                },
                "policy": [
                    {
                        "authority": "urn:uuid:d1eaac1a-22b7-4bb6-9c62-cc95d6fdf1a5"
                    }
                ],
                "provision": {
                    "type": "permit"
                }
            },
            "request": {
                "method": "POST",
                "url": "http://shinny.org/us/ny/hrsn/Consent/ConsentExample"
            }
        },
        {
            "fullUrl": "http://shinny.org/us/ny/hrsn/Organization/OrganizationExampleOther-SCN1",
            "resource": {
                "resourceType": "Organization",
                "id": "OrganizationExampleOther-SCN1",
                "meta": {
                    "lastUpdated": "2024-02-23T00:00:00Z",
                    "profile": [
                        "http://shinny.org/us/ny/hrsn/StructureDefinition/shin-ny-organization"
                    ]
                },
                "text": {
                    "status": "generated",
                    "div": "<div xmlns=\"http://www.w3.org/1999/xhtml\"><a name=\"Organization_OrganizationExampleOther-SCN1\"> </a><p class=\"res-header-id\"><b>Generated Narrative: Organization OrganizationExampleOther-SCN1</b></p><a name=\"OrganizationExampleOther-SCN1\"> </a><a name=\"hcOrganizationExampleOther-SCN1\"> </a><div style=\"display: inline-block; background-color: #d9e0e7; padding: 6px; margin: 4px; border: 1px solid #8da1b4; border-radius: 5px; line-height: 60%\"><p style=\"margin-bottom: 0px\">Last updated: 2024-02-23 00:00:00+0000</p><p style=\"margin-bottom: 0px\">Profile: <a href=\"StructureDefinition-shin-ny-organization.html\">SHINNY Organization Profile</a></p></div><p><b>identifier</b>: Care Ridge/SCNExample, NPI/1234567890</p><p><b>active</b>: true</p><p><b>type</b>: <span title=\"Codes:{https://hl7.org/fhir/R4/codesystem-organization-type.html other}\">Other</span></p><p><b>name</b>: Care Ridge SCN</p><p><b>address</b>: 111 Care Ridge St, Plainview, NY 11803</p></div>"
                },
                "identifier": [
                    {
                        "type": {
                            "coding": [
                                {
                                    "display": "Care Ridge"
                                }
                            ]
                        },
                        "system": "http://www.scn.ny.gov/",
                        "value": "SCNExample"
                    },
                    {
                        "type": {
                            "coding": [
                                {
                                    "system": "http://hl7.org/fhir/sid/us-npi",
                                    "code": "NPI"
                                }
                            ]
                        },
                        "system": "http://hl7.org/fhir/sid/us-npi",
                        "value": "1234567890"
                    }
                ],
                "active": true,
                "type": [
                    {
                        "coding": [
                            {
                                "system": "https://hl7.org/fhir/R4/codesystem-organization-type.html",
                                "code": "other",
                                "display": "Other"
                            }
                        ]
                    }
                ],
                "name": "Care Ridge SCN",
                "address": [
                    {
                        "text": "111 Care Ridge St, Plainview, NY 11803",
                        "line": [
                            "111 Care Ridge St"
                        ],
                        "city": "Plainview",
                        "district": "Nassau County",
                        "state": "NY",
                        "postalCode": "11803"
                    }
                ]
            },
            "request": {
                "method": "POST",
                "url": "http://shinny.org/us/ny/hrsn/Organization/OrganizationExampleOther-SCN1"
            }
        },
        {
            "fullUrl": "http://shinny.org/us/ny/hrsn/Practitioner/PractitionerExampleCBO",
            "resource": {
                "resourceType": "Practitioner",
                "id": "PractitionerExampleCBO",
                "meta": {
                    "lastUpdated": "2024-02-23T00:00:00Z",
                    "profile": [
                        "http://shinny.org/us/ny/hrsn/StructureDefinition/shin-ny-practitioner"
                    ]
                },
                "text": {
                    "status": "generated",
                    "div": "<div xmlns=\"http://www.w3.org/1999/xhtml\"><a name=\"Practitioner_PractitionerExampleCBO\"> </a><p class=\"res-header-id\"><b>Generated Narrative: Practitioner PractitionerExampleCBO</b></p><a name=\"PractitionerExampleCBO\"> </a><a name=\"hcPractitionerExampleCBO\"> </a><div style=\"display: inline-block; background-color: #d9e0e7; padding: 6px; margin: 4px; border: 1px solid #8da1b4; border-radius: 5px; line-height: 60%\"><p style=\"margin-bottom: 0px\">Last updated: 2024-02-23 00:00:00+0000</p><p style=\"margin-bottom: 0px\">Profile: <a href=\"StructureDefinition-shin-ny-practitioner.html\">SHINNY Practitioner Profile</a></p></div><p><b>identifier</b>: National provider identifier/123456789</p><p><b>name</b>: Bob Kelso MD</p><p><b>gender</b>: Male</p><p><b>birthDate</b>: 1953-01-01</p></div>"
                },
                "identifier": [
                    {
                        "type": {
                            "coding": [
                                {
                                    "system": "http://terminology.hl7.org/CodeSystem/v2-0203",
                                    "code": "NPI"
                                }
                            ]
                        },
                        "system": "http://hl7.org/fhir/sid/us-npi",
                        "value": "123456789",
                        "assigner": {
                            "reference": "Organization/OrganizationExampleCBO"
                        }
                    }
                ],
                "name": [
                    {
                        "text": "Bob Kelso MD",
                        "family": "Kelso",
                        "given": [
                            "Bob"
                        ],
                        "suffix": [
                            "MD",
                            "CDPAD"
                        ]
                    }
                ],
                "gender": "male",
                "birthDate": "1953-01-01"
            },
            "request": {
                "method": "POST",
                "url": "http://shinny.org/us/ny/hrsn/Practitioner/PractitionerExampleCBO"
            }
        },
        {
            "fullUrl": "http://shinny.org/us/ny/hrsn/Condition/ConditionFoodInsecurityExample",
            "resource": {
                "resourceType": "Condition",
                "id": "ConditionFoodInsecurityExample",
                "meta": {
                    "lastUpdated": "2024-02-23T00:00:00Z",
                    "profile": [
                        "http://shinny.org/us/ny/hrsn/StructureDefinition/SHINNY-SDOHCC-Condition"
                    ]
                },
                "text": {
                    "status": "generated",
                    "div": "<div xmlns=\"http://www.w3.org/1999/xhtml\"><a name=\"Condition_ConditionFoodInsecurityExample\"> </a><p class=\"res-header-id\"><b>Generated Narrative: Condition ConditionFoodInsecurityExample</b></p><a name=\"ConditionFoodInsecurityExample\"> </a><a name=\"hcConditionFoodInsecurityExample\"> </a><div style=\"display: inline-block; background-color: #d9e0e7; padding: 6px; margin: 4px; border: 1px solid #8da1b4; border-radius: 5px; line-height: 60%\"><p style=\"margin-bottom: 0px\">Last updated: 2024-02-23 00:00:00+0000</p><p style=\"margin-bottom: 0px\">Profile: <a href=\"StructureDefinition-SHINNY-SDOHCC-Condition.html\">SHINNY SDOHCC Condition Profile</a></p></div><p><b>clinicalStatus</b>: <span title=\"Codes:{http://terminology.hl7.org/CodeSystem/condition-clinical active}\">Active</span></p><p><b>verificationStatus</b>: <span title=\"Codes:{http://terminology.hl7.org/CodeSystem/condition-ver-status confirmed}\">Confirmed</span></p><p><b>category</b>: <span title=\"Codes:{http://hl7.org/fhir/us/core/CodeSystem/condition-category health-concern}\">Health Concern</span>, <span title=\"Codes:{http://hl7.org/fhir/us/sdoh-clinicalcare/CodeSystem/SDOHCC-CodeSystemTemporaryCodes food-insecurity}\">Food Insecurity</span></p><p><b>code</b>: <span title=\"Codes:{http://snomed.info/sct 733423003}, {http://hl7.org/fhir/sid/icd-10-cm Z59.4}\">Food insecurity</span></p><p><b>subject</b>: <a href=\"Patient-PatientExample.html\">Jon Doe  Male, DoB: 1981-07-16 ( Medical record number)</a></p><p><b>encounter</b>: <a href=\"Encounter-EncounterExample.html\">Encounter: status = finished; class = field (ActCode#FLD); type = Direct questioning (procedure); period = 2024-02-23 00:00:00+0000 --&gt; 2024-02-23 01:00:00+0000</a></p><p><b>onset</b>: 2023-07-12 16:08:00+0000 --&gt; (ongoing)</p><p><b>asserter</b>: <a href=\"Practitioner-PractitionerExampleCBO.html\">Practitioner Bob Kelso MD</a></p><blockquote><p><b>evidence</b></p><p><b>detail</b>: </p><ul><li><a href=\"Observation-AssessmentFoodInsecurityExample.html\">Observation Inadequate oral food intake for physiological needs</a></li><li><a href=\"Observation-ObservationResponseFoodInsecurity88122-7.html\">Observation Within the past 12 months we worried whether our food would run out before we got money to buy more [U.S. FSS]</a></li></ul></blockquote></div>"
                },
                "clinicalStatus": {
                    "coding": [
                        {
                            "system": "http://terminology.hl7.org/CodeSystem/condition-clinical",
                            "code": "active",
                            "display": "Active"
                        }
                    ]
                },
                "verificationStatus": {
                    "coding": [
                        {
                            "system": "http://terminology.hl7.org/CodeSystem/condition-ver-status",
                            "code": "confirmed",
                            "display": "Confirmed"
                        }
                    ]
                },
                "category": [
                    {
                        "coding": [
                            {
                                "system": "http://hl7.org/fhir/us/core/CodeSystem/condition-category",
                                "code": "health-concern",
                                "display": "Health Concern"
                            }
                        ]
                    },
                    {
                        "coding": [
                            {
                                "system": "http://hl7.org/fhir/us/sdoh-clinicalcare/CodeSystem/SDOHCC-CodeSystemTemporaryCodes",
                                "code": "food-insecurity",
                                "display": "Food Insecurity"
                            }
                        ]
                    }
                ],
                "code": {
                    "coding": [
                        {
                            "system": "http://snomed.info/sct",
                            "code": "733423003",
                            "display": "Food insecurity"
                        },
                        {
                            "system": "http://hl7.org/fhir/sid/icd-10-cm",
                            "code": "Z59.4",
                            "display": "Lack of adequate food"
                        }
                    ]
                },
                "subject": {
                    "reference": "Patient/PatientExample"
                },
                "encounter": {
                    "reference": "Encounter/EncounterExample"
                },
                "onsetPeriod": {
                    "start": "2023-07-12T16:08:00.000Z"
                },
                "asserter": {
                    "reference": "Practitioner/PractitionerExampleCBO"
                },
                "evidence": [
                    {
                        "detail": [
                            {
                                "reference": "Observation/AssessmentFoodInsecurityExample"
                            },
                            {
                                "reference": "Observation/ObservationResponseFoodInsecurity88122-7"
                            }
                        ]
                    }
                ]
            },
            "request": {
                "method": "POST",
                "url": "http://shinny.org/us/ny/hrsn/Condition/ConditionFoodInsecurityExample"
            }
        },
        {
            "fullUrl": "http://shinny.org/us/ny/hrsn/Observation/ObservationResponseQuestion1grouper",
            "resource": {
                "resourceType": "Observation",
                "id": "ObservationResponseQuestion1grouper",
                "meta": {
                    "lastUpdated": "2024-02-23T00:00:00Z",
                    "profile": [
                        "http://shinny.org/us/ny/hrsn/StructureDefinition/shinny-observation-screening-response"
                    ]
                },
                "language": "en",
                "text": {
                    "status": "generated",
                    "div": "<div xmlns=\"http://www.w3.org/1999/xhtml\" xml:lang=\"en\" lang=\"en\"><a name=\"Observation_ObservationResponseQuestion1grouper\"> </a><p class=\"res-header-id\"><b>Generated Narrative: Observation ObservationResponseQuestion1grouper</b></p><a name=\"ObservationResponseQuestion1grouper\"> </a><a name=\"hcObservationResponseQuestion1grouper\"> </a><div style=\"display: inline-block; background-color: #d9e0e7; padding: 6px; margin: 4px; border: 1px solid #8da1b4; border-radius: 5px; line-height: 60%\"><p style=\"margin-bottom: 0px\">Last updated: 2024-02-23 00:00:00+0000; Language: en</p><p style=\"margin-bottom: 0px\">Profile: <a href=\"StructureDefinition-shinny-observation-screening-response.html\">SHINNY Observation Screening Response Profile</a></p></div><p><b>status</b>: Final</p><p><b>category</b>: <span title=\"Codes:{http://hl7.org/fhir/us/sdoh-clinicalcare/CodeSystem/SDOHCC-CodeSystemTemporaryCodes housing-instability}, {http://hl7.org/fhir/us/sdoh-clinicalcare/CodeSystem/SDOHCC-CodeSystemTemporaryCodes inadequate-housing}, {http://hl7.org/fhir/us/sdoh-clinicalcare/CodeSystem/SDOHCC-CodeSystemTemporaryCodes food-insecurity}\">Housing Instability</span>, <span title=\"Codes:{http://terminology.hl7.org/CodeSystem/observation-category social-history}\">Social History</span>, <span title=\"Codes:{http://terminology.hl7.org/CodeSystem/observation-category survey}\">Survey</span></p><p><b>code</b>: <span title=\"Codes:{http://loinc.org 100698-0}, {http://shinny.org/us/ny/hrsn/CodeSystem/NYS-HRSN-Questionnaire NYS-AHC-HRSN}\">Social Determinants of Health screening report Document</span></p><p><b>subject</b>: <a href=\"Patient-PatientExample.html\">Jon Doe  Male, DoB: 1981-07-16 ( Medical record number)</a></p><p><b>encounter</b>: <a href=\"Encounter-EncounterExample.html\">Encounter: status = finished; class = field (ActCode#FLD); type = Direct questioning (procedure); period = 2024-02-23 00:00:00+0000 --&gt; 2024-02-23 01:00:00+0000</a></p><p><b>effective</b>: 2020-09-10 21:56:54+0000</p><p><b>issued</b>: 2020-09-10 21:56:54+0000</p><p><b>performer</b>: </p><ul><li><a href=\"Organization-OrganizationExampleOther-SCN1.html\">Organization Care Ridge SCN</a></li><li><a href=\"Practitioner-PractitionerExampleSCN.html\">Practitioner Carla Espinoza</a></li></ul><p><b>interpretation</b>: <span title=\"Codes:{http://terminology.hl7.org/CodeSystem/v3-ObservationInterpretation POS}\">Positive</span></p><p><b>hasMember</b>: </p><ul><li><a href=\"Observation-ObservationResponseHousingInstability71802-3.html\">Observation Housing status</a></li><li><a href=\"Observation-ObservationResponseInadequateHousing96778-6.html\">Observation Problems with place where you live</a></li></ul></div>"
                },
                "status": "final",
                "category": [
                    {
                        "coding": [
                            {
                                "system": "http://hl7.org/fhir/us/sdoh-clinicalcare/CodeSystem/SDOHCC-CodeSystemTemporaryCodes",
                                "code": "housing-instability",
                                "display": "Housing Instability"
                            },
                            {
                                "system": "http://hl7.org/fhir/us/sdoh-clinicalcare/CodeSystem/SDOHCC-CodeSystemTemporaryCodes",
                                "code": "inadequate-housing",
                                "display": "Inadequate Housing"
                            },
                            {
                                "system": "http://hl7.org/fhir/us/sdoh-clinicalcare/CodeSystem/SDOHCC-CodeSystemTemporaryCodes",
                                "code": "food-insecurity",
                                "display": "Food Insecurity"
                            }
                        ]
                    },
                    {
                        "coding": [
                            {
                                "system": "http://terminology.hl7.org/CodeSystem/observation-category",
                                "code": "social-history"
                            }
                        ]
                    },
                    {
                        "coding": [
                            {
                                "system": "http://terminology.hl7.org/CodeSystem/observation-category",
                                "code": "survey"
                            }
                        ]
                    }
                ],
                "code": {
                    "coding": [
                        {
                            "system": "http://loinc.org",
                            "code": "100698-0",
                            "display": "Social Determinants of Health screening report Document"
                        },
                        {
                            "system": "http://shinny.org/us/ny/hrsn/CodeSystem/NYS-HRSN-Questionnaire",
                            "code": "NYS-AHC-HRSN",
                            "display": "NYS Accountable Health Communities (AHC) Health-Related Social Needs Screening (HRSN) tool"
                        }
                    ]
                },
                "subject": {
                    "reference": "Patient/PatientExample"
                },
                "encounter": {
                    "reference": "Encounter/EncounterExample"
                },
                "effectiveDateTime": "2020-09-10T21:56:54.671Z",
                "issued": "2020-09-10T21:56:54.671Z",
                "performer": [
                    {
                        "reference": "Organization/OrganizationExampleOther-SCN1"
                    },
                    {
                        "reference": "Practitioner/PractitionerExampleSCN"
                    }
                ],
                "interpretation": [
                    {
                        "coding": [
                            {
                                "system": "http://terminology.hl7.org/CodeSystem/v3-ObservationInterpretation",
                                "code": "POS",
                                "display": "Positive"
                            }
                        ]
                    }
                ],
                "hasMember": [
                    {
                        "reference": "Observation/ObservationResponseHousingInstability71802-3"
                    },
                    {
                        "reference": "Observation/ObservationResponseInadequateHousing96778-6"
                    }
                ]
            },
            "request": {
                "method": "POST",
                "url": "http://shinny.org/us/ny/hrsn/Observation/ObservationResponseQuestion1grouper"
            }
        },
        {
            "fullUrl": "http://shinny.org/us/ny/hrsn/Observation/ObservationResponseHousingInstability71802-3",
            "resource": {
                "resourceType": "Observation",
                "id": "ObservationResponseHousingInstability71802-3",
                "meta": {
                    "lastUpdated": "2024-02-23T00:00:00Z",
                    "profile": [
                        "http://shinny.org/us/ny/hrsn/StructureDefinition/shinny-observation-screening-response"
                    ]
                },
                "language": "en",
                "text": {
                    "status": "generated",
                    "div": "<div xmlns=\"http://www.w3.org/1999/xhtml\" xml:lang=\"en\" lang=\"en\"><a name=\"Observation_ObservationResponseHousingInstability71802-3\"> </a><p class=\"res-header-id\"><b>Generated Narrative: Observation ObservationResponseHousingInstability71802-3</b></p><a name=\"ObservationResponseHousingInstability71802-3\"> </a><a name=\"hcObservationResponseHousingInstability71802-3\"> </a><div style=\"display: inline-block; background-color: #d9e0e7; padding: 6px; margin: 4px; border: 1px solid #8da1b4; border-radius: 5px; line-height: 60%\"><p style=\"margin-bottom: 0px\">Last updated: 2024-02-23 00:00:00+0000; Language: en</p><p style=\"margin-bottom: 0px\">Profile: <a href=\"StructureDefinition-shinny-observation-screening-response.html\">SHINNY Observation Screening Response Profile</a></p></div><p><b>status</b>: Final</p><p><b>category</b>: <span title=\"Codes:{http://hl7.org/fhir/us/sdoh-clinicalcare/CodeSystem/SDOHCC-CodeSystemTemporaryCodes housing-instability}\">Housing Instability</span>, <span title=\"Codes:{http://terminology.hl7.org/CodeSystem/observation-category social-history}\">Social History</span>, <span title=\"Codes:{http://terminology.hl7.org/CodeSystem/observation-category survey}\">Survey</span></p><p><b>code</b>: <span title=\"Codes:{http://loinc.org 71802-3}\">What is your living situation today?</span></p><p><b>subject</b>: <a href=\"Patient-PatientExample.html\">Jon Doe  Male, DoB: 1981-07-16 ( Medical record number)</a></p><p><b>encounter</b>: <a href=\"Encounter-EncounterExample.html\">Encounter: status = finished; class = field (ActCode#FLD); type = Direct questioning (procedure); period = 2024-02-23 00:00:00+0000 --&gt; 2024-02-23 01:00:00+0000</a></p><p><b>effective</b>: 2023-07-12 16:08:00+0000</p><p><b>issued</b>: 2023-07-12 16:08:00+0000</p><p><b>value</b>: <span title=\"Codes:{http://loinc.org LA31993-1}\">I have a steady place to live</span></p></div>"
                },
                "status": "final",
                "category": [
                    {
                        "coding": [
                            {
                                "system": "http://hl7.org/fhir/us/sdoh-clinicalcare/CodeSystem/SDOHCC-CodeSystemTemporaryCodes",
                                "code": "housing-instability",
                                "display": "Housing Instability"
                            }
                        ]
                    },
                    {
                        "coding": [
                            {
                                "system": "http://terminology.hl7.org/CodeSystem/observation-category",
                                "code": "social-history"
                            }
                        ]
                    },
                    {
                        "coding": [
                            {
                                "system": "http://terminology.hl7.org/CodeSystem/observation-category",
                                "code": "survey"
                            }
                        ]
                    }
                ],
                "code": {
                    "coding": [
                        {
                            "system": "http://loinc.org",
                            "code": "71802-3",
                            "display": "Housing status"
                        }
                    ],
                    "text": "What is your living situation today?"
                },
                "subject": {
                    "reference": "Patient/PatientExample"
                },
                "encounter": {
                    "reference": "Encounter/EncounterExample"
                },
                "effectiveDateTime": "2023-07-12T16:08:00.000Z",
                "issued": "2023-07-12T16:08:00.000Z",
                "valueCodeableConcept": {
                    "coding": [
                        {
                            "system": "http://loinc.org",
                            "code": "LA31993-1",
                            "display": "I have a steady place to live"
                        }
                    ]
                }
            },
            "request": {
                "method": "POST",
                "url": "http://shinny.org/us/ny/hrsn/Observation/ObservationResponseHousingInstability71802-3"
            }
        },
        {
            "fullUrl": "http://shinny.org/us/ny/hrsn/Observation/ObservationResponseInadequateHousing96778-6",
            "resource": {
                "resourceType": "Observation",
                "id": "ObservationResponseInadequateHousing96778-6",
                "meta": {
                    "lastUpdated": "2024-02-23T00:00:00Z",
                    "profile": [
                        "http://shinny.org/us/ny/hrsn/StructureDefinition/shinny-observation-screening-response"
                    ]
                },
                "language": "en",
                "text": {
                    "status": "generated",
                    "div": "<div xmlns=\"http://www.w3.org/1999/xhtml\" xml:lang=\"en\" lang=\"en\"><a name=\"Observation_ObservationResponseInadequateHousing96778-6\"> </a><p class=\"res-header-id\"><b>Generated Narrative: Observation ObservationResponseInadequateHousing96778-6</b></p><a name=\"ObservationResponseInadequateHousing96778-6\"> </a><a name=\"hcObservationResponseInadequateHousing96778-6\"> </a><div style=\"display: inline-block; background-color: #d9e0e7; padding: 6px; margin: 4px; border: 1px solid #8da1b4; border-radius: 5px; line-height: 60%\"><p style=\"margin-bottom: 0px\">Last updated: 2024-02-23 00:00:00+0000; Language: en</p><p style=\"margin-bottom: 0px\">Profile: <a href=\"StructureDefinition-shinny-observation-screening-response.html\">SHINNY Observation Screening Response Profile</a></p></div><p><b>status</b>: Final</p><p><b>category</b>: <span title=\"Codes:{http://hl7.org/fhir/us/sdoh-clinicalcare/CodeSystem/SDOHCC-CodeSystemTemporaryCodes inadequate-housing}\">Inadequate Housing</span>, <span title=\"Codes:{http://terminology.hl7.org/CodeSystem/observation-category social-history}\">Social History</span>, <span title=\"Codes:{http://terminology.hl7.org/CodeSystem/observation-category survey}\">Survey</span></p><p><b>code</b>: <span title=\"Codes:{http://loinc.org 96778-6}\">Think about the place you live. Do you have problems with any of the following?</span></p><p><b>subject</b>: <a href=\"Patient-PatientExample.html\">Jon Doe  Male, DoB: 1981-07-16 ( Medical record number)</a></p><p><b>encounter</b>: <a href=\"Encounter-EncounterExample.html\">Encounter: status = finished; class = field (ActCode#FLD); type = Direct questioning (procedure); period = 2024-02-23 00:00:00+0000 --&gt; 2024-02-23 01:00:00+0000</a></p><p><b>effective</b>: 2023-07-12 16:08:00+0000</p><p><b>issued</b>: 2023-07-12 16:08:00+0000</p><p><b>interpretation</b>: <span title=\"Codes:{http://terminology.hl7.org/CodeSystem/v3-ObservationInterpretation POS}\">Positive</span></p><h3>Components</h3><table class=\"grid\"><tr><td style=\"display: none\">-</td><td><b>Code</b></td><td><b>Value[x]</b></td></tr><tr><td style=\"display: none\">*</td><td><span title=\"Codes:{http://loinc.org 96778-6}\">Problems with place where you live</span></td><td><span title=\"Codes:\">Mold</span></td></tr></table></div>"
                },
                "status": "final",
                "category": [
                    {
                        "coding": [
                            {
                                "system": "http://hl7.org/fhir/us/sdoh-clinicalcare/CodeSystem/SDOHCC-CodeSystemTemporaryCodes",
                                "code": "inadequate-housing",
                                "display": "Inadequate Housing"
                            }
                        ]
                    },
                    {
                        "coding": [
                            {
                                "system": "http://terminology.hl7.org/CodeSystem/observation-category",
                                "code": "social-history"
                            }
                        ]
                    },
                    {
                        "coding": [
                            {
                                "system": "http://terminology.hl7.org/CodeSystem/observation-category",
                                "code": "survey"
                            }
                        ]
                    }
                ],
                "code": {
                    "coding": [
                        {
                            "system": "http://loinc.org",
                            "code": "96778-6",
                            "display": "Problems with place where you live"
                        }
                    ],
                    "text": "Think about the place you live. Do you have problems with any of the following?"
                },
                "subject": {
                    "reference": "Patient/PatientExample"
                },
                "encounter": {
                    "reference": "Encounter/EncounterExample"
                },
                "effectiveDateTime": "2023-07-12T16:08:00.000Z",
                "issued": "2023-07-12T16:08:00.000Z",
                "interpretation": [
                    {
                        "coding": [
                            {
                                "system": "http://terminology.hl7.org/CodeSystem/v3-ObservationInterpretation",
                                "code": "POS",
                                "display": "Positive"
                            }
                        ]
                    }
                ],
                "component": [
                    {
                        "code": {
                            "coding": [
                                {
                                    "system": "http://loinc.org",
                                    "code": "96778-6",
                                    "display": "Problems with place where you live"
                                }
                            ]
                        },
                        "valueCodeableConcept": {
                            "coding": [
                                {
                                    "code": "LA28580-1",
                                    "display": "Mold"
                                },
                                {
                                    "code": "LA31998-0",
                                    "display": "Lack of heat"
                                },
                                {
                                    "code": "LA32001-2",
                                    "display": "Water leaks"
                                }
                            ]
                        }
                    }
                ]
            },
            "request": {
                "method": "POST",
                "url": "http://shinny.org/us/ny/hrsn/Observation/ObservationResponseInadequateHousing96778-6"
            }
        },
        {
            "fullUrl": "http://shinny.org/us/ny/hrsn/Observation/ObservationResponseQuestion2grouper",
            "resource": {
                "resourceType": "Observation",
                "id": "ObservationResponseQuestion2grouper",
                "meta": {
                    "lastUpdated": "2024-02-23T00:00:00Z",
                    "profile": [
                        "http://shinny.org/us/ny/hrsn/StructureDefinition/shinny-observation-screening-response"
                    ]
                },
                "language": "en",
                "text": {
                    "status": "generated",
                    "div": "<div xmlns=\"http://www.w3.org/1999/xhtml\" xml:lang=\"en\" lang=\"en\"><a name=\"Observation_ObservationResponseQuestion2grouper\"> </a><p class=\"res-header-id\"><b>Generated Narrative: Observation ObservationResponseQuestion2grouper</b></p><a name=\"ObservationResponseQuestion2grouper\"> </a><a name=\"hcObservationResponseQuestion2grouper\"> </a><div style=\"display: inline-block; background-color: #d9e0e7; padding: 6px; margin: 4px; border: 1px solid #8da1b4; border-radius: 5px; line-height: 60%\"><p style=\"margin-bottom: 0px\">Last updated: 2024-02-23 00:00:00+0000; Language: en</p><p style=\"margin-bottom: 0px\">Profile: <a href=\"StructureDefinition-shinny-observation-screening-response.html\">SHINNY Observation Screening Response Profile</a></p></div><p><b>status</b>: Final</p><p><b>category</b>: <span title=\"Codes:{http://hl7.org/fhir/us/sdoh-clinicalcare/CodeSystem/SDOHCC-CodeSystemTemporaryCodes financial-insecurity}, {http://hl7.org/fhir/us/sdoh-clinicalcare/CodeSystem/SDOHCC-CodeSystemTemporaryCodes employment-status}\">Financial Insecurity</span>, <span title=\"Codes:{http://terminology.hl7.org/CodeSystem/observation-category social-history}\">Social History</span>, <span title=\"Codes:{http://terminology.hl7.org/CodeSystem/observation-category survey}\">Survey</span></p><p><b>code</b>: <span title=\"Codes:{http://loinc.org 97023-6}\">Accountable health communities (AHC) health-related social needs (HRSN) supplemental questions</span></p><p><b>subject</b>: <a href=\"Patient-PatientExample.html\">Jon Doe  Male, DoB: 1981-07-16 ( Medical record number)</a></p><p><b>encounter</b>: <a href=\"Encounter-EncounterExample.html\">Encounter: status = finished; class = field (ActCode#FLD); type = Direct questioning (procedure); period = 2024-02-23 00:00:00+0000 --&gt; 2024-02-23 01:00:00+0000</a></p><p><b>effective</b>: 2020-09-10 21:56:54+0000</p><p><b>issued</b>: 2020-09-10 21:56:54+0000</p><p><b>performer</b>: <a href=\"Organization-OrganizationExampleOther-SCN1.html\">Organization Care Ridge SCN</a></p><p><b>interpretation</b>: <span title=\"Codes:{http://terminology.hl7.org/CodeSystem/v3-ObservationInterpretation POS}\">Positive</span></p><p><b>hasMember</b>: </p><ul><li><a href=\"Observation-ObservationResponseFinancialInsecurity76513-1.html\">Observation How hard is it for you to pay for the very basics like food, housing, medical care, and heating</a></li><li><a href=\"Observation-ObservationResponseEmploymentStatus96780-2.html\">Observation Wants help finding or keeping work or a job</a></li></ul></div>"
                },
                "status": "final",
                "category": [
                    {
                        "coding": [
                            {
                                "system": "http://hl7.org/fhir/us/sdoh-clinicalcare/CodeSystem/SDOHCC-CodeSystemTemporaryCodes",
                                "code": "financial-insecurity",
                                "display": "Financial Insecurity"
                            },
                            {
                                "system": "http://hl7.org/fhir/us/sdoh-clinicalcare/CodeSystem/SDOHCC-CodeSystemTemporaryCodes",
                                "code": "employment-status",
                                "display": "Employment Status"
                            }
                        ]
                    },
                    {
                        "coding": [
                            {
                                "system": "http://terminology.hl7.org/CodeSystem/observation-category",
                                "code": "social-history"
                            }
                        ]
                    },
                    {
                        "coding": [
                            {
                                "system": "http://terminology.hl7.org/CodeSystem/observation-category",
                                "code": "survey"
                            }
                        ]
                    }
                ],
                "code": {
                    "coding": [
                        {
                            "system": "http://loinc.org",
                            "code": "97023-6",
                            "display": "Accountable health communities (AHC) health-related social needs (HRSN) supplemental questions"
                        }
                    ]
                },
                "subject": {
                    "reference": "Patient/PatientExample"
                },
                "encounter": {
                    "reference": "Encounter/EncounterExample"
                },
                "effectiveDateTime": "2020-09-10T21:56:54.671Z",
                "issued": "2020-09-10T21:56:54.671Z",
                "performer": [
                    {
                        "reference": "Organization/OrganizationExampleOther-SCN1"
                    }
                ],
                "interpretation": [
                    {
                        "coding": [
                            {
                                "system": "http://terminology.hl7.org/CodeSystem/v3-ObservationInterpretation",
                                "code": "POS",
                                "display": "Positive"
                            }
                        ]
                    }
                ],
                "hasMember": [
                    {
                        "reference": "Observation/ObservationResponseFinancialInsecurity76513-1"
                    },
                    {
                        "reference": "Observation/ObservationResponseEmploymentStatus96780-2"
                    }
                ]
            },
            "request": {
                "method": "POST",
                "url": "http://shinny.org/us/ny/hrsn/Observation/ObservationResponseQuestion2grouper"
            }
        },
        {
            "fullUrl": "http://shinny.org/us/ny/hrsn/Observation/ObservationResponseFinancialInsecurity76513-1",
            "resource": {
                "resourceType": "Observation",
                "id": "ObservationResponseFinancialInsecurity76513-1",
                "meta": {
                    "lastUpdated": "2024-02-23T00:00:00Z",
                    "profile": [
                        "http://shinny.org/us/ny/hrsn/StructureDefinition/shinny-observation-screening-response"
                    ]
                },
                "language": "en",
                "text": {
                    "status": "generated",
                    "div": "<div xmlns=\"http://www.w3.org/1999/xhtml\" xml:lang=\"en\" lang=\"en\"><a name=\"Observation_ObservationResponseFinancialInsecurity76513-1\"> </a><p class=\"res-header-id\"><b>Generated Narrative: Observation ObservationResponseFinancialInsecurity76513-1</b></p><a name=\"ObservationResponseFinancialInsecurity76513-1\"> </a><a name=\"hcObservationResponseFinancialInsecurity76513-1\"> </a><div style=\"display: inline-block; background-color: #d9e0e7; padding: 6px; margin: 4px; border: 1px solid #8da1b4; border-radius: 5px; line-height: 60%\"><p style=\"margin-bottom: 0px\">Last updated: 2024-02-23 00:00:00+0000; Language: en</p><p style=\"margin-bottom: 0px\">Profile: <a href=\"StructureDefinition-shinny-observation-screening-response.html\">SHINNY Observation Screening Response Profile</a></p></div><p><b>status</b>: Final</p><p><b>category</b>: <span title=\"Codes:{http://hl7.org/fhir/us/sdoh-clinicalcare/CodeSystem/SDOHCC-CodeSystemTemporaryCodes financial-insecurity}\">Financial Insecurity</span>, <span title=\"Codes:{http://terminology.hl7.org/CodeSystem/observation-category social-history}\">Social History</span>, <span title=\"Codes:{http://terminology.hl7.org/CodeSystem/observation-category survey}\">Survey</span></p><p><b>code</b>: <span title=\"Codes:{http://loinc.org 76513-1}\">How hard is it for you to pay for the very basics like food, housing, medical care, and heating?</span></p><p><b>subject</b>: <a href=\"Patient-PatientExample.html\">Jon Doe  Male, DoB: 1981-07-16 ( Medical record number)</a></p><p><b>encounter</b>: <a href=\"Encounter-EncounterExample.html\">Encounter: status = finished; class = field (ActCode#FLD); type = Direct questioning (procedure); period = 2024-02-23 00:00:00+0000 --&gt; 2024-02-23 01:00:00+0000</a></p><p><b>effective</b>: 2023-07-12 16:08:00+0000</p><p><b>issued</b>: 2023-07-12 16:08:00+0000</p><p><b>performer</b>: <a href=\"Organization-OrganizationExampleOther-SCN1.html\">Organization Care Ridge SCN</a></p><p><b>value</b>: <span title=\"Codes:{http://loinc.org LA22683-9}\">Somewhat Hard</span></p><p><b>interpretation</b>: <span title=\"Codes:{http://terminology.hl7.org/CodeSystem/v3-ObservationInterpretation POS}\">Positive</span></p></div>"
                },
                "status": "final",
                "category": [
                    {
                        "coding": [
                            {
                                "system": "http://hl7.org/fhir/us/sdoh-clinicalcare/CodeSystem/SDOHCC-CodeSystemTemporaryCodes",
                                "code": "financial-insecurity",
                                "display": "Financial Insecurity"
                            }
                        ]
                    },
                    {
                        "coding": [
                            {
                                "system": "http://terminology.hl7.org/CodeSystem/observation-category",
                                "code": "social-history"
                            }
                        ]
                    },
                    {
                        "coding": [
                            {
                                "system": "http://terminology.hl7.org/CodeSystem/observation-category",
                                "code": "survey"
                            }
                        ]
                    }
                ],
                "code": {
                    "coding": [
                        {
                            "system": "http://loinc.org",
                            "code": "76513-1",
                            "display": "How hard is it for you to pay for the very basics like food, housing, medical care, and heating"
                        }
                    ],
                    "text": "How hard is it for you to pay for the very basics like food, housing, medical care, and heating?"
                },
                "subject": {
                    "reference": "Patient/PatientExample"
                },
                "encounter": {
                    "reference": "Encounter/EncounterExample"
                },
                "effectiveDateTime": "2023-07-12T16:08:00.000Z",
                "issued": "2023-07-12T16:08:00.000Z",
                "performer": [
                    {
                        "reference": "Organization/OrganizationExampleOther-SCN1"
                    }
                ],
                "valueCodeableConcept": {
                    "coding": [
                        {
                            "system": "http://loinc.org",
                            "code": "LA22683-9",
                            "display": "Somewhat Hard"
                        }
                    ]
                },
                "interpretation": [
                    {
                        "coding": [
                            {
                                "system": "http://terminology.hl7.org/CodeSystem/v3-ObservationInterpretation",
                                "code": "POS",
                                "display": "Positive"
                            }
                        ]
                    }
                ]
            },
            "request": {
                "method": "POST",
                "url": "http://shinny.org/us/ny/hrsn/Observation/ObservationResponseFinancialInsecurity76513-1"
            }
        },
        {
            "fullUrl": "http://shinny.org/us/ny/hrsn/Observation/ObservationResponseEmploymentStatus96780-2",
            "resource": {
                "resourceType": "Observation",
                "id": "ObservationResponseEmploymentStatus96780-2",
                "meta": {
                    "lastUpdated": "2024-02-23T00:00:00Z",
                    "profile": [
                        "http://shinny.org/us/ny/hrsn/StructureDefinition/shinny-observation-screening-response"
                    ]
                },
                "language": "en",
                "text": {
                    "status": "generated",
                    "div": "<div xmlns=\"http://www.w3.org/1999/xhtml\" xml:lang=\"en\" lang=\"en\"><a name=\"Observation_ObservationResponseEmploymentStatus96780-2\"> </a><p class=\"res-header-id\"><b>Generated Narrative: Observation ObservationResponseEmploymentStatus96780-2</b></p><a name=\"ObservationResponseEmploymentStatus96780-2\"> </a><a name=\"hcObservationResponseEmploymentStatus96780-2\"> </a><div style=\"display: inline-block; background-color: #d9e0e7; padding: 6px; margin: 4px; border: 1px solid #8da1b4; border-radius: 5px; line-height: 60%\"><p style=\"margin-bottom: 0px\">Last updated: 2024-02-23 00:00:00+0000; Language: en</p><p style=\"margin-bottom: 0px\">Profile: <a href=\"StructureDefinition-shinny-observation-screening-response.html\">SHINNY Observation Screening Response Profile</a></p></div><p><b>status</b>: Final</p><p><b>category</b>: <span title=\"Codes:{http://hl7.org/fhir/us/sdoh-clinicalcare/CodeSystem/SDOHCC-CodeSystemTemporaryCodes employment-status}\">Employment Status</span>, <span title=\"Codes:{http://terminology.hl7.org/CodeSystem/observation-category social-history}\">Social History</span>, <span title=\"Codes:{http://terminology.hl7.org/CodeSystem/observation-category survey}\">Survey</span></p><p><b>code</b>: <span title=\"Codes:{http://loinc.org 96780-2}\">Do you want help finding or keeping work or a job?</span></p><p><b>subject</b>: <a href=\"Patient-PatientExample.html\">Jon Doe  Male, DoB: 1981-07-16 ( Medical record number)</a></p><p><b>encounter</b>: <a href=\"Encounter-EncounterExample.html\">Encounter: status = finished; class = field (ActCode#FLD); type = Direct questioning (procedure); period = 2024-02-23 00:00:00+0000 --&gt; 2024-02-23 01:00:00+0000</a></p><p><b>effective</b>: 2023-07-12 16:08:00+0000</p><p><b>issued</b>: 2023-07-12 16:08:00+0000</p><p><b>performer</b>: <a href=\"Organization-OrganizationExampleOther-SCN1.html\">Organization Care Ridge SCN</a></p><p><b>value</b>: <span title=\"Codes:{http://loinc.org LA31981-6}\">Yes, help finding work</span></p><p><b>interpretation</b>: <span title=\"Codes:{http://terminology.hl7.org/CodeSystem/v3-ObservationInterpretation POS}\">Positive</span></p></div>"
                },
                "status": "final",
                "category": [
                    {
                        "coding": [
                            {
                                "system": "http://hl7.org/fhir/us/sdoh-clinicalcare/CodeSystem/SDOHCC-CodeSystemTemporaryCodes",
                                "code": "employment-status",
                                "display": "Employment Status"
                            }
                        ]
                    },
                    {
                        "coding": [
                            {
                                "system": "http://terminology.hl7.org/CodeSystem/observation-category",
                                "code": "social-history"
                            }
                        ]
                    },
                    {
                        "coding": [
                            {
                                "system": "http://terminology.hl7.org/CodeSystem/observation-category",
                                "code": "survey"
                            }
                        ]
                    }
                ],
                "code": {
                    "coding": [
                        {
                            "system": "http://loinc.org",
                            "code": "96780-2",
                            "display": "Wants help finding or keeping work or a job"
                        }
                    ],
                    "text": "Do you want help finding or keeping work or a job?"
                },
                "subject": {
                    "reference": "Patient/PatientExample"
                },
                "encounter": {
                    "reference": "Encounter/EncounterExample"
                },
                "effectiveDateTime": "2023-07-12T16:08:00.000Z",
                "issued": "2023-07-12T16:08:00.000Z",
                "performer": [
                    {
                        "reference": "Organization/OrganizationExampleOther-SCN1"
                    }
                ],
                "valueCodeableConcept": {
                    "coding": [
                        {
                            "system": "http://loinc.org",
                            "code": "LA31981-6",
                            "display": "Yes, help finding work"
                        }
                    ]
                },
                "interpretation": [
                    {
                        "coding": [
                            {
                                "system": "http://terminology.hl7.org/CodeSystem/v3-ObservationInterpretation",
                                "code": "POS",
                                "display": "Positive"
                            }
                        ]
                    }
                ]
            },
            "request": {
                "method": "POST",
                "url": "http://shinny.org/us/ny/hrsn/Observation/ObservationResponseEmploymentStatus96780-2"
            }
        },
        {
            "fullUrl": "http://shinny.org/us/ny/hrsn/QuestionnaireResponse/SHINNYNYSHRSNQuestionnaireResponse",
            "resource": {
                "resourceType": "QuestionnaireResponse",
                "id": "SHINNYNYSHRSNQuestionnaireResponse",
                "meta": {
                    "lastUpdated": "2024-02-23T00:00:00Z",
                    "profile": [
                        "http://hl7.org/fhir/uv/sdc/StructureDefinition/sdc-questionnaireresponse"
                    ]
                },
                "text": {
                    "status": "generated",
                    "div": "<div xmlns=\"http://www.w3.org/1999/xhtml\"><a name=\"QuestionnaireResponse_SHINNYNYSHRSNQuestionnaireResponse\"> </a><p class=\"res-header-id\"><b>Generated Narrative: QuestionnaireResponse SHINNYNYSHRSNQuestionnaireResponse</b></p><a name=\"SHINNYNYSHRSNQuestionnaireResponse\"> </a><a name=\"hcSHINNYNYSHRSNQuestionnaireResponse\"> </a><div style=\"display: inline-block; background-color: #d9e0e7; padding: 6px; margin: 4px; border: 1px solid #8da1b4; border-radius: 5px; line-height: 60%\"><p style=\"margin-bottom: 0px\">Last updated: 2024-02-23 00:00:00+0000</p><p style=\"margin-bottom: 0px\">Profile: <a href=\"http://hl7.org/fhir/uv/sdc/STU3/StructureDefinition-sdc-questionnaireresponse.html\">SDC Questionnaire Response</a></p></div><table border=\"1\" cellpadding=\"0\" cellspacing=\"0\" style=\"border: 1px #F0F0F0 solid; font-size: 11px; font-family: verdana; vertical-align: top;\"><tr style=\"border: 2px #F0F0F0 solid; font-size: 11px; font-family: verdana; vertical-align: top\"><th style=\"vertical-align: top; text-align : var(--ig-left,left); background-color: white; border: 1px #F0F0F0 solid; padding:0px 4px 0px 4px; padding-top: 3px; padding-bottom: 3px\" class=\"hierarchy\"><a href=\"https://hl7.org/fhir/R4/formats.html#table\" title=\"The linkID for the item\">LinkID</a></th><th style=\"vertical-align: top; text-align : var(--ig-left,left); background-color: white; border: 1px #F0F0F0 solid; padding:0px 4px 0px 4px; padding-top: 3px; padding-bottom: 3px\" class=\"hierarchy\"><a href=\"https://hl7.org/fhir/R4/formats.html#table\" title=\"Text for the item\">Text</a></th><th style=\"vertical-align: top; text-align : var(--ig-left,left); background-color: white; border: 1px #F0F0F0 solid; padding:0px 4px 0px 4px; padding-top: 3px; padding-bottom: 3px\" class=\"hierarchy\"><a href=\"https://hl7.org/fhir/R4/formats.html#table\" title=\"Minimum and Maximum # of times the item can appear in the instance\">Definition</a></th><th style=\"vertical-align: top; text-align : var(--ig-left,left); background-color: white; border: 1px #F0F0F0 solid; padding:0px 4px 0px 4px; padding-top: 3px; padding-bottom: 3px\" class=\"hierarchy\"><a href=\"https://hl7.org/fhir/R4/formats.html#table\" title=\"The type of the item\">Answer</a><span style=\"float: right\"><a href=\"https://hl7.org/fhir/R4/formats.html#table\" title=\"Legend for this format\"><img src=\"data:image/png;base64,\" alt=\"doco\" style=\"background-color: inherit\"/></a></span></th></tr><tr style=\"border: 1px #F0F0F0 solid; padding:0px; vertical-align: top; background-color: white\"><td style=\"vertical-align: top; text-align : var(--ig-left,left); background-color: white; border: 1px #F0F0F0 solid; padding:0px 4px 0px 4px; white-space: nowrap; background-image: url(tbl_bck1.png)\" class=\"hierarchy\"><img src=\"tbl_spacer.png\" alt=\".\" style=\"background-color: inherit\" class=\"hierarchy\"/><img src=\"icon_q_root.gif\" alt=\".\" style=\"background-color: white; background-color: inherit\" title=\"QuestionnaireResponseRoot\" class=\"hierarchy\"/> SHINNYNYSHRSNQuestionnaireResponse</td><td style=\"vertical-align: top; text-align : var(--ig-left,left); background-color: white; border: 1px #F0F0F0 solid; padding:0px 4px 0px 4px\" class=\"hierarchy\"></td><td style=\"vertical-align: top; text-align : var(--ig-left,left); background-color: white; border: 1px #F0F0F0 solid; padding:0px 4px 0px 4px\" class=\"hierarchy\"></td><td style=\"vertical-align: top; text-align : var(--ig-left,left); background-color: white; border: 1px #F0F0F0 solid; padding:0px 4px 0px 4px\" class=\"hierarchy\">Questionnaire:<a href=\"Questionnaire-SHINNYNYSHRSNQuestionnaire.html\">Questionnaire[http://shinny.org/us/ny/hrsn/Questionnaire/SHINNYNYSHRSNQuestionnaire|1.6.3]</a></td></tr>\r\n<tr style=\"border: 1px #F0F0F0 solid; padding:0px; vertical-align: top; background-color: #F7F7F7\"><td style=\"vertical-align: top; text-align : var(--ig-left,left); background-color: #F7F7F7; border: 1px #F0F0F0 solid; padding:0px 4px 0px 4px; white-space: nowrap; background-image: url(tbl_bck01.png)\" class=\"hierarchy\"><img src=\"tbl_spacer.png\" alt=\".\" style=\"background-color: inherit\" class=\"hierarchy\"/><img src=\"tbl_vjoin_end.png\" alt=\".\" style=\"background-color: inherit\" class=\"hierarchy\"/><img src=\"icon-q-group.png\" alt=\".\" style=\"background-color: #F7F7F7; background-color: inherit\" title=\"Group\" class=\"hierarchy\"/> nys-hrsn-questionnaire</td><td style=\"vertical-align: top; text-align : var(--ig-left,left); background-color: #F7F7F7; border: 1px #F0F0F0 solid; padding:0px 4px 0px 4px\" class=\"hierarchy\">NYS Accountable Health Communities (AHC) Health-Related Social Needs Screening (HRSN) tool</td><td style=\"vertical-align: top; text-align : var(--ig-left,left); background-color: #F7F7F7; border: 1px #F0F0F0 solid; padding:0px 4px 0px 4px\" class=\"hierarchy\"/><td style=\"vertical-align: top; text-align : var(--ig-left,left); background-color: #F7F7F7; border: 1px #F0F0F0 solid; padding:0px 4px 0px 4px\" class=\"hierarchy\"/></tr>\r\n<tr style=\"border: 1px #F0F0F0 solid; padding:0px; vertical-align: top; background-color: white\"><td style=\"vertical-align: top; text-align : var(--ig-left,left); background-color: white; border: 1px #F0F0F0 solid; padding:0px 4px 0px 4px; white-space: nowrap; background-image: url(tbl_bck001.png)\" class=\"hierarchy\"><img src=\"tbl_spacer.png\" alt=\".\" style=\"background-color: inherit\" class=\"hierarchy\"/><img src=\"tbl_blank.png\" alt=\".\" style=\"background-color: inherit\" class=\"hierarchy\"/><img src=\"tbl_vjoin_end.png\" alt=\".\" style=\"background-color: inherit\" class=\"hierarchy\"/><img src=\"icon-q-group.png\" alt=\".\" style=\"background-color: white; background-color: inherit\" title=\"Group\" class=\"hierarchy\"/> 96777-8</td><td style=\"vertical-align: top; text-align : var(--ig-left,left); background-color: white; border: 1px #F0F0F0 solid; padding:0px 4px 0px 4px\" class=\"hierarchy\">Accountable health communities (AHC) health-related social needs screening (HRSN) tool</td><td style=\"vertical-align: top; text-align : var(--ig-left,left); background-color: white; border: 1px #F0F0F0 solid; padding:0px 4px 0px 4px\" class=\"hierarchy\"/><td style=\"vertical-align: top; text-align : var(--ig-left,left); background-color: white; border: 1px #F0F0F0 solid; padding:0px 4px 0px 4px\" class=\"hierarchy\"/></tr>\r\n<tr style=\"border: 1px #F0F0F0 solid; padding:0px; vertical-align: top; background-color: #F7F7F7\"><td style=\"vertical-align: top; text-align : var(--ig-left,left); background-color: #F7F7F7; border: 1px #F0F0F0 solid; padding:0px 4px 0px 4px; white-space: nowrap; background-image: url(tbl_bck0010.png)\" class=\"hierarchy\"><img src=\"tbl_spacer.png\" alt=\".\" style=\"background-color: inherit\" class=\"hierarchy\"/><img src=\"tbl_blank.png\" alt=\".\" style=\"background-color: inherit\" class=\"hierarchy\"/><img src=\"tbl_blank.png\" alt=\".\" style=\"background-color: inherit\" class=\"hierarchy\"/><img src=\"tbl_vjoin.png\" alt=\".\" style=\"background-color: inherit\" class=\"hierarchy\"/><img src=\"icon-q-string.png\" alt=\".\" style=\"background-color: #F7F7F7; background-color: inherit\" title=\"Item\" class=\"hierarchy\"/> 71802-3</td><td style=\"vertical-align: top; text-align : var(--ig-left,left); background-color: #F7F7F7; border: 1px #F0F0F0 solid; padding:0px 4px 0px 4px\" class=\"hierarchy\">What is your living situation today?</td><td style=\"vertical-align: top; text-align : var(--ig-left,left); background-color: #F7F7F7; border: 1px #F0F0F0 solid; padding:0px 4px 0px 4px\" class=\"hierarchy\"/><td style=\"vertical-align: top; text-align : var(--ig-left,left); background-color: #F7F7F7; border: 1px #F0F0F0 solid; padding:0px 4px 0px 4px\" class=\"hierarchy\"><span><span><a href=\"https://loinc.org/LA31993-1\">LOINC LA31993-1</a>: I have a steady place to live</span></span></td></tr>\r\n<tr style=\"border: 1px #F0F0F0 solid; padding:0px; vertical-align: top; background-color: white\"><td style=\"vertical-align: top; text-align : var(--ig-left,left); background-color: white; border: 1px #F0F0F0 solid; padding:0px 4px 0px 4px; white-space: nowrap; background-image: url(tbl_bck0010.png)\" class=\"hierarchy\"><img src=\"tbl_spacer.png\" alt=\".\" style=\"background-color: inherit\" class=\"hierarchy\"/><img src=\"tbl_blank.png\" alt=\".\" style=\"background-color: inherit\" class=\"hierarchy\"/><img src=\"tbl_blank.png\" alt=\".\" style=\"background-color: inherit\" class=\"hierarchy\"/><img src=\"tbl_vjoin.png\" alt=\".\" style=\"background-color: inherit\" class=\"hierarchy\"/><img src=\"icon-q-string.png\" alt=\".\" style=\"background-color: white; background-color: inherit\" title=\"Item\" class=\"hierarchy\"/> 96778-6</td><td style=\"vertical-align: top; text-align : var(--ig-left,left); background-color: white; border: 1px #F0F0F0 solid; padding:0px 4px 0px 4px\" class=\"hierarchy\">Think about the place you live. Do you have problems with any of the following?</td><td style=\"vertical-align: top; text-align : var(--ig-left,left); background-color: white; border: 1px #F0F0F0 solid; padding:0px 4px 0px 4px\" class=\"hierarchy\"/><td style=\"vertical-align: top; text-align : var(--ig-left,left); background-color: white; border: 1px #F0F0F0 solid; padding:0px 4px 0px 4px\" class=\"hierarchy\"><span><span><a href=\"https://loinc.org/LA28580-1\">LOINC LA28580-1</a>: Mold</span></span></td></tr>\r\n<tr style=\"border: 1px #F0F0F0 solid; padding:0px; vertical-align: top; background-color: #F7F7F7\"><td style=\"vertical-align: top; text-align : var(--ig-left,left); background-color: #F7F7F7; border: 1px #F0F0F0 solid; padding:0px 4px 0px 4px; white-space: nowrap; background-image: url(tbl_bck0010.png)\" class=\"hierarchy\"><img src=\"tbl_spacer.png\" alt=\".\" style=\"background-color: inherit\" class=\"hierarchy\"/><img src=\"tbl_blank.png\" alt=\".\" style=\"background-color: inherit\" class=\"hierarchy\"/><img src=\"tbl_blank.png\" alt=\".\" style=\"background-color: inherit\" class=\"hierarchy\"/><img src=\"tbl_vjoin.png\" alt=\".\" style=\"background-color: inherit\" class=\"hierarchy\"/><img src=\"icon-q-string.png\" alt=\".\" style=\"background-color: #F7F7F7; background-color: inherit\" title=\"Item\" class=\"hierarchy\"/> 93030-5</td><td style=\"vertical-align: top; text-align : var(--ig-left,left); background-color: #F7F7F7; border: 1px #F0F0F0 solid; padding:0px 4px 0px 4px\" class=\"hierarchy\">In the past 12 months, has lack of reliable transportation kept you from medical appointments, meetings, work or from getting things needed for daily living?</td><td style=\"vertical-align: top; text-align : var(--ig-left,left); background-color: #F7F7F7; border: 1px #F0F0F0 solid; padding:0px 4px 0px 4px\" class=\"hierarchy\"/><td style=\"vertical-align: top; text-align : var(--ig-left,left); background-color: #F7F7F7; border: 1px #F0F0F0 solid; padding:0px 4px 0px 4px\" class=\"hierarchy\"><span><span><a href=\"https://loinc.org/LA32-8\">LOINC LA32-8</a>: No</span></span></td></tr>\r\n<tr style=\"border: 1px #F0F0F0 solid; padding:0px; vertical-align: top; background-color: white\"><td style=\"vertical-align: top; text-align : var(--ig-left,left); background-color: white; border: 1px #F0F0F0 solid; padding:0px 4px 0px 4px; white-space: nowrap; background-image: url(tbl_bck0000.png)\" class=\"hierarchy\"><img src=\"tbl_spacer.png\" alt=\".\" style=\"background-color: inherit\" class=\"hierarchy\"/><img src=\"tbl_blank.png\" alt=\".\" style=\"background-color: inherit\" class=\"hierarchy\"/><img src=\"tbl_blank.png\" alt=\".\" style=\"background-color: inherit\" class=\"hierarchy\"/><img src=\"tbl_vjoin_end.png\" alt=\".\" style=\"background-color: inherit\" class=\"hierarchy\"/><img src=\"icon-q-string.png\" alt=\".\" style=\"background-color: white; background-color: inherit\" title=\"Item\" class=\"hierarchy\"/> 96780-2</td><td style=\"vertical-align: top; text-align : var(--ig-left,left); background-color: white; border: 1px #F0F0F0 solid; padding:0px 4px 0px 4px\" class=\"hierarchy\">Do you want help finding or keeping work or a job?</td><td style=\"vertical-align: top; text-align : var(--ig-left,left); background-color: white; border: 1px #F0F0F0 solid; padding:0px 4px 0px 4px\" class=\"hierarchy\"/><td style=\"vertical-align: top; text-align : var(--ig-left,left); background-color: white; border: 1px #F0F0F0 solid; padding:0px 4px 0px 4px\" class=\"hierarchy\"><span><span><a href=\"https://loinc.org/LA31981-6\">LOINC LA31981-6</a>: Yes, help finding work</span></span></td></tr>\r\n<tr><td colspan=\"4\" class=\"hierarchy\"><br/><a href=\"https://hl7.org/fhir/R4/formats.html#table\" title=\"Legend for this format\"><img src=\"data:image/png;base64,\" alt=\"doco\" style=\"background-color: inherit\"/> Documentation for this format</a></td></tr></table></div>"
                },
                "questionnaire": "http://shinny.org/us/ny/hrsn/Questionnaire/SHINNYNYSHRSNQuestionnaire",
                "status": "completed",
                "subject": {
                    "reference": "Patient/PatientExample"
                },
                "encounter": {
                    "reference": "Encounter/EncounterExample"
                },
                "authored": "2024-01-01T00:00:00Z",
                "item": [
                    {
                        "linkId": "nys-hrsn-questionnaire",
                        "text": "NYS Accountable Health Communities (AHC) Health-Related Social Needs Screening (HRSN) tool",
                        "item": [
                            {
                                "linkId": "96777-8",
                                "text": "Accountable health communities (AHC) health-related social needs screening (HRSN) tool",
                                "item": [
                                    {
                                        "linkId": "71802-3",
                                        "text": "What is your living situation today?",
                                        "answer": [
                                            {
                                                "valueCoding": {
                                                    "system": "http://loinc.org",
                                                    "code": "LA31993-1",
                                                    "display": "I have a steady place to live"
                                                }
                                            }
                                        ]
                                    },
                                    {
                                        "linkId": "96778-6",
                                        "text": "Think about the place you live. Do you have problems with any of the following?",
                                        "answer": [
                                            {
                                                "valueCoding": {
                                                    "system": "http://loinc.org",
                                                    "code": "LA28580-1",
                                                    "display": "Mold"
                                                }
                                            }
                                        ]
                                    },
                                    {
                                        "linkId": "93030-5",
                                        "text": "In the past 12 months, has lack of reliable transportation kept you from medical appointments, meetings, work or from getting things needed for daily living?",
                                        "answer": [
                                            {
                                                "valueCoding": {
                                                    "system": "http://loinc.org",
                                                    "code": "LA32-8",
                                                    "display": "No"
                                                }
                                            }
                                        ]
                                    },
                                    {
                                        "linkId": "96780-2",
                                        "text": "Do you want help finding or keeping work or a job?",
                                        "answer": [
                                            {
                                                "valueCoding": {
                                                    "system": "http://loinc.org",
                                                    "code": "LA31981-6",
                                                    "display": "Yes, help finding work"
                                                }
                                            }
                                        ]
                                    }
                                ]
                            }
                        ]
                    }
                ]
            },
            "request": {
                "method": "POST",
                "url": "http://shinny.org/us/ny/hrsn/QuestionnaireResponse/SHINNYNYSHRSNQuestionnaireResponse"
            }
        },
        {
            "fullUrl": "http://shinny.org/us/ny/hrsn/QuestionnaireResponse/SHINNYApprovalQuestionnaireResponse",
            "resource": {
                "resourceType": "QuestionnaireResponse",
                "id": "SHINNYApprovalQuestionnaireResponse",
                "meta": {
                    "lastUpdated": "2024-02-23T00:00:00Z",
                    "profile": [
                        "http://hl7.org/fhir/uv/sdc/StructureDefinition/sdc-questionnaireresponse"
                    ]
                },
                "text": {
                    "status": "generated",
                    "div": "<div xmlns=\"http://www.w3.org/1999/xhtml\"><a name=\"QuestionnaireResponse_SHINNYApprovalQuestionnaireResponse\"> </a><p class=\"res-header-id\"><b>Generated Narrative: QuestionnaireResponse SHINNYApprovalQuestionnaireResponse</b></p><a name=\"SHINNYApprovalQuestionnaireResponse\"> </a><a name=\"hcSHINNYApprovalQuestionnaireResponse\"> </a><div style=\"display: inline-block; background-color: #d9e0e7; padding: 6px; margin: 4px; border: 1px solid #8da1b4; border-radius: 5px; line-height: 60%\"><p style=\"margin-bottom: 0px\">Last updated: 2024-02-23 00:00:00+0000</p><p style=\"margin-bottom: 0px\">Profile: <a href=\"http://hl7.org/fhir/uv/sdc/STU3/StructureDefinition-sdc-questionnaireresponse.html\">SDC Questionnaire Response</a></p></div><table border=\"1\" cellpadding=\"0\" cellspacing=\"0\" style=\"border: 1px #F0F0F0 solid; font-size: 11px; font-family: verdana; vertical-align: top;\"><tr style=\"border: 2px #F0F0F0 solid; font-size: 11px; font-family: verdana; vertical-align: top\"><th style=\"vertical-align: top; text-align : var(--ig-left,left); background-color: white; border: 1px #F0F0F0 solid; padding:0px 4px 0px 4px; padding-top: 3px; padding-bottom: 3px\" class=\"hierarchy\"><a href=\"https://hl7.org/fhir/R4/formats.html#table\" title=\"The linkID for the item\">LinkID</a></th><th style=\"vertical-align: top; text-align : var(--ig-left,left); background-color: white; border: 1px #F0F0F0 solid; padding:0px 4px 0px 4px; padding-top: 3px; padding-bottom: 3px\" class=\"hierarchy\"><a href=\"https://hl7.org/fhir/R4/formats.html#table\" title=\"Text for the item\">Text</a></th><th style=\"vertical-align: top; text-align : var(--ig-left,left); background-color: white; border: 1px #F0F0F0 solid; padding:0px 4px 0px 4px; padding-top: 3px; padding-bottom: 3px\" class=\"hierarchy\"><a href=\"https://hl7.org/fhir/R4/formats.html#table\" title=\"Minimum and Maximum # of times the item can appear in the instance\">Definition</a></th><th style=\"vertical-align: top; text-align : var(--ig-left,left); background-color: white; border: 1px #F0F0F0 solid; padding:0px 4px 0px 4px; padding-top: 3px; padding-bottom: 3px\" class=\"hierarchy\"><a href=\"https://hl7.org/fhir/R4/formats.html#table\" title=\"The type of the item\">Answer</a><span style=\"float: right\"><a href=\"https://hl7.org/fhir/R4/formats.html#table\" title=\"Legend for this format\"><img src=\"data:image/png;base64,\" alt=\"doco\" style=\"background-color: inherit\"/></a></span></th></tr><tr style=\"border: 1px #F0F0F0 solid; padding:0px; vertical-align: top; background-color: white\"><td style=\"vertical-align: top; text-align : var(--ig-left,left); background-color: white; border: 1px #F0F0F0 solid; padding:0px 4px 0px 4px; white-space: nowrap; background-image: url(tbl_bck1.png)\" class=\"hierarchy\"><img src=\"tbl_spacer.png\" alt=\".\" style=\"background-color: inherit\" class=\"hierarchy\"/><img src=\"icon_q_root.gif\" alt=\".\" style=\"background-color: white; background-color: inherit\" title=\"QuestionnaireResponseRoot\" class=\"hierarchy\"/> SHINNYApprovalQuestionnaireResponse</td><td style=\"vertical-align: top; text-align : var(--ig-left,left); background-color: white; border: 1px #F0F0F0 solid; padding:0px 4px 0px 4px\" class=\"hierarchy\"></td><td style=\"vertical-align: top; text-align : var(--ig-left,left); background-color: white; border: 1px #F0F0F0 solid; padding:0px 4px 0px 4px\" class=\"hierarchy\"></td><td style=\"vertical-align: top; text-align : var(--ig-left,left); background-color: white; border: 1px #F0F0F0 solid; padding:0px 4px 0px 4px\" class=\"hierarchy\">Questionnaire:<a href=\"Questionnaire-SHINNYApprovalQuestionnaire.html\">Questionnaire[http://shinny.org/us/ny/hrsn/Questionnaire/SHINNYApprovalQuestionnaire|1.6.3]</a></td></tr>\r\n<tr style=\"border: 1px #F0F0F0 solid; padding:0px; vertical-align: top; background-color: #F7F7F7\"><td style=\"vertical-align: top; text-align : var(--ig-left,left); background-color: #F7F7F7; border: 1px #F0F0F0 solid; padding:0px 4px 0px 4px; white-space: nowrap; background-image: url(tbl_bck01.png)\" class=\"hierarchy\"><img src=\"tbl_spacer.png\" alt=\".\" style=\"background-color: inherit\" class=\"hierarchy\"/><img src=\"tbl_vjoin_end.png\" alt=\".\" style=\"background-color: inherit\" class=\"hierarchy\"/><img src=\"icon-q-group.png\" alt=\".\" style=\"background-color: #F7F7F7; background-color: inherit\" title=\"Group\" class=\"hierarchy\"/> assessment-approval-questionnaire</td><td style=\"vertical-align: top; text-align : var(--ig-left,left); background-color: #F7F7F7; border: 1px #F0F0F0 solid; padding:0px 4px 0px 4px\" class=\"hierarchy\">Patient approval to move forward with completing the assessment.</td><td style=\"vertical-align: top; text-align : var(--ig-left,left); background-color: #F7F7F7; border: 1px #F0F0F0 solid; padding:0px 4px 0px 4px\" class=\"hierarchy\"/><td style=\"vertical-align: top; text-align : var(--ig-left,left); background-color: #F7F7F7; border: 1px #F0F0F0 solid; padding:0px 4px 0px 4px\" class=\"hierarchy\"/></tr>\r\n<tr style=\"border: 1px #F0F0F0 solid; padding:0px; vertical-align: top; background-color: white\"><td style=\"vertical-align: top; text-align : var(--ig-left,left); background-color: white; border: 1px #F0F0F0 solid; padding:0px 4px 0px 4px; white-space: nowrap; background-image: url(tbl_bck001.png)\" class=\"hierarchy\"><img src=\"tbl_spacer.png\" alt=\".\" style=\"background-color: inherit\" class=\"hierarchy\"/><img src=\"tbl_blank.png\" alt=\".\" style=\"background-color: inherit\" class=\"hierarchy\"/><img src=\"tbl_vjoin_end.png\" alt=\".\" style=\"background-color: inherit\" class=\"hierarchy\"/><img src=\"icon-q-group.png\" alt=\".\" style=\"background-color: white; background-color: inherit\" title=\"Group\" class=\"hierarchy\"/> patient-assessment-approval</td><td style=\"vertical-align: top; text-align : var(--ig-left,left); background-color: white; border: 1px #F0F0F0 solid; padding:0px 4px 0px 4px\" class=\"hierarchy\">Patient approval to move forward with completing the assessment.</td><td style=\"vertical-align: top; text-align : var(--ig-left,left); background-color: white; border: 1px #F0F0F0 solid; padding:0px 4px 0px 4px\" class=\"hierarchy\"/><td style=\"vertical-align: top; text-align : var(--ig-left,left); background-color: white; border: 1px #F0F0F0 solid; padding:0px 4px 0px 4px\" class=\"hierarchy\"/></tr>\r\n<tr style=\"border: 1px #F0F0F0 solid; padding:0px; vertical-align: top; background-color: #F7F7F7\"><td style=\"vertical-align: top; text-align : var(--ig-left,left); background-color: #F7F7F7; border: 1px #F0F0F0 solid; padding:0px 4px 0px 4px; white-space: nowrap; background-image: url(tbl_bck0000.png)\" class=\"hierarchy\"><img src=\"tbl_spacer.png\" alt=\".\" style=\"background-color: inherit\" class=\"hierarchy\"/><img src=\"tbl_blank.png\" alt=\".\" style=\"background-color: inherit\" class=\"hierarchy\"/><img src=\"tbl_blank.png\" alt=\".\" style=\"background-color: inherit\" class=\"hierarchy\"/><img src=\"tbl_vjoin_end.png\" alt=\".\" style=\"background-color: inherit\" class=\"hierarchy\"/><img src=\"icon-q-string.png\" alt=\".\" style=\"background-color: #F7F7F7; background-color: inherit\" title=\"Item\" class=\"hierarchy\"/> patient-assessment-approval-indicator</td><td style=\"vertical-align: top; text-align : var(--ig-left,left); background-color: #F7F7F7; border: 1px #F0F0F0 solid; padding:0px 4px 0px 4px\" class=\"hierarchy\">Indicator of whether the patient agreed to move forward with completing the assessment.</td><td style=\"vertical-align: top; text-align : var(--ig-left,left); background-color: #F7F7F7; border: 1px #F0F0F0 solid; padding:0px 4px 0px 4px\" class=\"hierarchy\"/><td style=\"vertical-align: top; text-align : var(--ig-left,left); background-color: #F7F7F7; border: 1px #F0F0F0 solid; padding:0px 4px 0px 4px\" class=\"hierarchy\"><span><span><a href=\"https://loinc.org/LA33-6\">LOINC LA33-6</a>: Yes</span></span></td></tr>\r\n<tr><td colspan=\"4\" class=\"hierarchy\"><br/><a href=\"https://hl7.org/fhir/R4/formats.html#table\" title=\"Legend for this format\"><img src=\"data:image/png;base64,\" alt=\"doco\" style=\"background-color: inherit\"/> Documentation for this format</a></td></tr></table></div>"
                },
                "questionnaire": "http://shinny.org/us/ny/hrsn/Questionnaire/SHINNYApprovalQuestionnaire",
                "status": "completed",
                "subject": {
                    "reference": "Patient/PatientExample"
                },
                "encounter": {
                    "reference": "Encounter/EncounterExample"
                },
                "authored": "2024-01-01T00:00:00Z",
                "item": [
                    {
                        "linkId": "assessment-approval-questionnaire",
                        "text": "Patient approval to move forward with completing the assessment.",
                        "item": [
                            {
                                "linkId": "patient-assessment-approval",
                                "text": "Patient approval to move forward with completing the assessment.",
                                "item": [
                                    {
                                        "linkId": "patient-assessment-approval-indicator",
                                        "text": "Indicator of whether the patient agreed to move forward with completing the assessment.",
                                        "answer": [
                                            {
                                                "valueCoding": {
                                                    "system": "http://loinc.org",
                                                    "code": "LA33-6",
                                                    "display": "Yes"
                                                }
                                            }
                                        ]
                                    }
                                ]
                            }
                        ]
                    }
                ]
            },
            "request": {
                "method": "POST",
                "url": "http://shinny.org/us/ny/hrsn/QuestionnaireResponse/SHINNYApprovalQuestionnaireResponse"
            }
        },
        {
            "fullUrl": "http://shinny.org/us/ny/hrsn/QuestionnaireResponse/SHINNYOutreachQuestionnaireResponse",
            "resource": {
                "resourceType": "QuestionnaireResponse",
                "id": "SHINNYOutreachQuestionnaireResponse",
                "meta": {
                    "lastUpdated": "2024-02-23T00:00:00Z",
                    "profile": [
                        "http://hl7.org/fhir/uv/sdc/StructureDefinition/sdc-questionnaireresponse"
                    ]
                },
                "text": {
                    "status": "generated",
                    "div": "<div xmlns=\"http://www.w3.org/1999/xhtml\"><a name=\"QuestionnaireResponse_SHINNYOutreachQuestionnaireResponse\"> </a><p class=\"res-header-id\"><b>Generated Narrative: QuestionnaireResponse SHINNYOutreachQuestionnaireResponse</b></p><a name=\"SHINNYOutreachQuestionnaireResponse\"> </a><a name=\"hcSHINNYOutreachQuestionnaireResponse\"> </a><div style=\"display: inline-block; background-color: #d9e0e7; padding: 6px; margin: 4px; border: 1px solid #8da1b4; border-radius: 5px; line-height: 60%\"><p style=\"margin-bottom: 0px\">Last updated: 2024-02-23 00:00:00+0000</p><p style=\"margin-bottom: 0px\">Profile: <a href=\"http://hl7.org/fhir/uv/sdc/STU3/StructureDefinition-sdc-questionnaireresponse.html\">SDC Questionnaire Response</a></p></div><table border=\"1\" cellpadding=\"0\" cellspacing=\"0\" style=\"border: 1px #F0F0F0 solid; font-size: 11px; font-family: verdana; vertical-align: top;\"><tr style=\"border: 2px #F0F0F0 solid; font-size: 11px; font-family: verdana; vertical-align: top\"><th style=\"vertical-align: top; text-align : var(--ig-left,left); background-color: white; border: 1px #F0F0F0 solid; padding:0px 4px 0px 4px; padding-top: 3px; padding-bottom: 3px\" class=\"hierarchy\"><a href=\"https://hl7.org/fhir/R4/formats.html#table\" title=\"The linkID for the item\">LinkID</a></th><th style=\"vertical-align: top; text-align : var(--ig-left,left); background-color: white; border: 1px #F0F0F0 solid; padding:0px 4px 0px 4px; padding-top: 3px; padding-bottom: 3px\" class=\"hierarchy\"><a href=\"https://hl7.org/fhir/R4/formats.html#table\" title=\"Text for the item\">Text</a></th><th style=\"vertical-align: top; text-align : var(--ig-left,left); background-color: white; border: 1px #F0F0F0 solid; padding:0px 4px 0px 4px; padding-top: 3px; padding-bottom: 3px\" class=\"hierarchy\"><a href=\"https://hl7.org/fhir/R4/formats.html#table\" title=\"Minimum and Maximum # of times the item can appear in the instance\">Definition</a></th><th style=\"vertical-align: top; text-align : var(--ig-left,left); background-color: white; border: 1px #F0F0F0 solid; padding:0px 4px 0px 4px; padding-top: 3px; padding-bottom: 3px\" class=\"hierarchy\"><a href=\"https://hl7.org/fhir/R4/formats.html#table\" title=\"The type of the item\">Answer</a><span style=\"float: right\"><a href=\"https://hl7.org/fhir/R4/formats.html#table\" title=\"Legend for this format\"><img src=\"data:image/png;base64,\" alt=\"doco\" style=\"background-color: inherit\"/></a></span></th></tr><tr style=\"border: 1px #F0F0F0 solid; padding:0px; vertical-align: top; background-color: white\"><td style=\"vertical-align: top; text-align : var(--ig-left,left); background-color: white; border: 1px #F0F0F0 solid; padding:0px 4px 0px 4px; white-space: nowrap; background-image: url(tbl_bck1.png)\" class=\"hierarchy\"><img src=\"tbl_spacer.png\" alt=\".\" style=\"background-color: inherit\" class=\"hierarchy\"/><img src=\"icon_q_root.gif\" alt=\".\" style=\"background-color: white; background-color: inherit\" title=\"QuestionnaireResponseRoot\" class=\"hierarchy\"/> SHINNYOutreachQuestionnaireResponse</td><td style=\"vertical-align: top; text-align : var(--ig-left,left); background-color: white; border: 1px #F0F0F0 solid; padding:0px 4px 0px 4px\" class=\"hierarchy\"></td><td style=\"vertical-align: top; text-align : var(--ig-left,left); background-color: white; border: 1px #F0F0F0 solid; padding:0px 4px 0px 4px\" class=\"hierarchy\"></td><td style=\"vertical-align: top; text-align : var(--ig-left,left); background-color: white; border: 1px #F0F0F0 solid; padding:0px 4px 0px 4px\" class=\"hierarchy\">Questionnaire:<a href=\"Questionnaire-SHINNYOutreachQuestionnaire.html\">Questionnaire[http://shinny.org/us/ny/hrsn/Questionnaire/SHINNYOutreachQuestionnaire|1.6.3]</a></td></tr>\r\n<tr style=\"border: 1px #F0F0F0 solid; padding:0px; vertical-align: top; background-color: #F7F7F7\"><td style=\"vertical-align: top; text-align : var(--ig-left,left); background-color: #F7F7F7; border: 1px #F0F0F0 solid; padding:0px 4px 0px 4px; white-space: nowrap; background-image: url(tbl_bck01.png)\" class=\"hierarchy\"><img src=\"tbl_spacer.png\" alt=\".\" style=\"background-color: inherit\" class=\"hierarchy\"/><img src=\"tbl_vjoin_end.png\" alt=\".\" style=\"background-color: inherit\" class=\"hierarchy\"/><img src=\"icon-q-group.png\" alt=\".\" style=\"background-color: #F7F7F7; background-color: inherit\" title=\"Group\" class=\"hierarchy\"/> assessment-outreach-questionnaire</td><td style=\"vertical-align: top; text-align : var(--ig-left,left); background-color: #F7F7F7; border: 1px #F0F0F0 solid; padding:0px 4px 0px 4px\" class=\"hierarchy\">Information regarding the patient outreach from the SCN for a patient assessment.</td><td style=\"vertical-align: top; text-align : var(--ig-left,left); background-color: #F7F7F7; border: 1px #F0F0F0 solid; padding:0px 4px 0px 4px\" class=\"hierarchy\"/><td style=\"vertical-align: top; text-align : var(--ig-left,left); background-color: #F7F7F7; border: 1px #F0F0F0 solid; padding:0px 4px 0px 4px\" class=\"hierarchy\"/></tr>\r\n<tr style=\"border: 1px #F0F0F0 solid; padding:0px; vertical-align: top; background-color: white\"><td style=\"vertical-align: top; text-align : var(--ig-left,left); background-color: white; border: 1px #F0F0F0 solid; padding:0px 4px 0px 4px; white-space: nowrap; background-image: url(tbl_bck001.png)\" class=\"hierarchy\"><img src=\"tbl_spacer.png\" alt=\".\" style=\"background-color: inherit\" class=\"hierarchy\"/><img src=\"tbl_blank.png\" alt=\".\" style=\"background-color: inherit\" class=\"hierarchy\"/><img src=\"tbl_vjoin_end.png\" alt=\".\" style=\"background-color: inherit\" class=\"hierarchy\"/><img src=\"icon-q-group.png\" alt=\".\" style=\"background-color: white; background-color: inherit\" title=\"Group\" class=\"hierarchy\"/> assessment-outreach</td><td style=\"vertical-align: top; text-align : var(--ig-left,left); background-color: white; border: 1px #F0F0F0 solid; padding:0px 4px 0px 4px\" class=\"hierarchy\">Questions regarding the assessment outreach.</td><td style=\"vertical-align: top; text-align : var(--ig-left,left); background-color: white; border: 1px #F0F0F0 solid; padding:0px 4px 0px 4px\" class=\"hierarchy\"/><td style=\"vertical-align: top; text-align : var(--ig-left,left); background-color: white; border: 1px #F0F0F0 solid; padding:0px 4px 0px 4px\" class=\"hierarchy\"/></tr>\r\n<tr style=\"border: 1px #F0F0F0 solid; padding:0px; vertical-align: top; background-color: #F7F7F7\"><td style=\"vertical-align: top; text-align : var(--ig-left,left); background-color: #F7F7F7; border: 1px #F0F0F0 solid; padding:0px 4px 0px 4px; white-space: nowrap; background-image: url(tbl_bck0010.png)\" class=\"hierarchy\"><img src=\"tbl_spacer.png\" alt=\".\" style=\"background-color: inherit\" class=\"hierarchy\"/><img src=\"tbl_blank.png\" alt=\".\" style=\"background-color: inherit\" class=\"hierarchy\"/><img src=\"tbl_blank.png\" alt=\".\" style=\"background-color: inherit\" class=\"hierarchy\"/><img src=\"tbl_vjoin.png\" alt=\".\" style=\"background-color: inherit\" class=\"hierarchy\"/><img src=\"icon-q-string.png\" alt=\".\" style=\"background-color: #F7F7F7; background-color: inherit\" title=\"Item\" class=\"hierarchy\"/> patient-assessment-outreach-date</td><td style=\"vertical-align: top; text-align : var(--ig-left,left); background-color: #F7F7F7; border: 1px #F0F0F0 solid; padding:0px 4px 0px 4px\" class=\"hierarchy\">The date the SCN reached out to the patient.</td><td style=\"vertical-align: top; text-align : var(--ig-left,left); background-color: #F7F7F7; border: 1px #F0F0F0 solid; padding:0px 4px 0px 4px\" class=\"hierarchy\"/><td style=\"vertical-align: top; text-align : var(--ig-left,left); background-color: #F7F7F7; border: 1px #F0F0F0 solid; padding:0px 4px 0px 4px\" class=\"hierarchy\">2024-02-01</td></tr>\r\n<tr style=\"border: 1px #F0F0F0 solid; padding:0px; vertical-align: top; background-color: white\"><td style=\"vertical-align: top; text-align : var(--ig-left,left); background-color: white; border: 1px #F0F0F0 solid; padding:0px 4px 0px 4px; white-space: nowrap; background-image: url(tbl_bck0010.png)\" class=\"hierarchy\"><img src=\"tbl_spacer.png\" alt=\".\" style=\"background-color: inherit\" class=\"hierarchy\"/><img src=\"tbl_blank.png\" alt=\".\" style=\"background-color: inherit\" class=\"hierarchy\"/><img src=\"tbl_blank.png\" alt=\".\" style=\"background-color: inherit\" class=\"hierarchy\"/><img src=\"tbl_vjoin.png\" alt=\".\" style=\"background-color: inherit\" class=\"hierarchy\"/><img src=\"icon-q-string.png\" alt=\".\" style=\"background-color: white; background-color: inherit\" title=\"Item\" class=\"hierarchy\"/> patient-assessment-outreach-status</td><td style=\"vertical-align: top; text-align : var(--ig-left,left); background-color: white; border: 1px #F0F0F0 solid; padding:0px 4px 0px 4px\" class=\"hierarchy\">Indicates whether the SCN successfully reached the patient.</td><td style=\"vertical-align: top; text-align : var(--ig-left,left); background-color: white; border: 1px #F0F0F0 solid; padding:0px 4px 0px 4px\" class=\"hierarchy\"/><td style=\"vertical-align: top; text-align : var(--ig-left,left); background-color: white; border: 1px #F0F0F0 solid; padding:0px 4px 0px 4px\" class=\"hierarchy\"><span><span><a href=\"https://loinc.org/LA33-6\">LOINC LA33-6</a>: Yes</span></span></td></tr>\r\n<tr style=\"border: 1px #F0F0F0 solid; padding:0px; vertical-align: top; background-color: #F7F7F7\"><td style=\"vertical-align: top; text-align : var(--ig-left,left); background-color: #F7F7F7; border: 1px #F0F0F0 solid; padding:0px 4px 0px 4px; white-space: nowrap; background-image: url(tbl_bck0000.png)\" class=\"hierarchy\"><img src=\"tbl_spacer.png\" alt=\".\" style=\"background-color: inherit\" class=\"hierarchy\"/><img src=\"tbl_blank.png\" alt=\".\" style=\"background-color: inherit\" class=\"hierarchy\"/><img src=\"tbl_blank.png\" alt=\".\" style=\"background-color: inherit\" class=\"hierarchy\"/><img src=\"tbl_vjoin_end.png\" alt=\".\" style=\"background-color: inherit\" class=\"hierarchy\"/><img src=\"icon-q-string.png\" alt=\".\" style=\"background-color: #F7F7F7; background-color: inherit\" title=\"Item\" class=\"hierarchy\"/> outreach-method</td><td style=\"vertical-align: top; text-align : var(--ig-left,left); background-color: #F7F7F7; border: 1px #F0F0F0 solid; padding:0px 4px 0px 4px\" class=\"hierarchy\">Describes the method of contact used to reach out to the patient.</td><td style=\"vertical-align: top; text-align : var(--ig-left,left); background-color: #F7F7F7; border: 1px #F0F0F0 solid; padding:0px 4px 0px 4px\" class=\"hierarchy\"/><td style=\"vertical-align: top; text-align : var(--ig-left,left); background-color: #F7F7F7; border: 1px #F0F0F0 solid; padding:0px 4px 0px 4px\" class=\"hierarchy\"><span><span><a href=\"CodeSystem-SHINNYQuestionnaires.html#SHINNYQuestionnaires-phone\">SHINNY Questionnaires phone</a>: Phone</span></span></td></tr>\r\n<tr><td colspan=\"4\" class=\"hierarchy\"><br/><a href=\"https://hl7.org/fhir/R4/formats.html#table\" title=\"Legend for this format\"><img src=\"data:image/png;base64,\" alt=\"doco\" style=\"background-color: inherit\"/> Documentation for this format</a></td></tr></table></div>"
                },
                "questionnaire": "http://shinny.org/us/ny/hrsn/Questionnaire/SHINNYOutreachQuestionnaire",
                "status": "completed",
                "subject": {
                    "reference": "Patient/PatientExample"
                },
                "encounter": {
                    "reference": "Encounter/EncounterExample"
                },
                "authored": "2024-01-01T00:00:00Z",
                "item": [
                    {
                        "linkId": "assessment-outreach-questionnaire",
                        "text": "Information regarding the patient outreach from the SCN for a patient assessment.",
                        "item": [
                            {
                                "linkId": "assessment-outreach",
                                "text": "Questions regarding the assessment outreach.",
                                "item": [
                                    {
                                        "linkId": "patient-assessment-outreach-date",
                                        "text": "The date the SCN reached out to the patient.",
                                        "answer": [
                                            {
                                                "valueDate": "2024-02-01"
                                            }
                                        ]
                                    },
                                    {
                                        "linkId": "patient-assessment-outreach-status",
                                        "text": "Indicates whether the SCN successfully reached the patient.",
                                        "answer": [
                                            {
                                                "valueCoding": {
                                                    "system": "http://loinc.org",
                                                    "code": "LA33-6",
                                                    "display": "Yes"
                                                }
                                            }
                                        ]
                                    },
                                    {
                                        "linkId": "outreach-method",
                                        "text": "Describes the method of contact used to reach out to the patient.",
                                        "answer": [
                                            {
                                                "valueCoding": {
                                                    "system": "http://shinny.org/us/ny/hrsn/CodeSystem/SHINNYQuestionnaires",
                                                    "code": "phone",
                                                    "display": "Phone"
                                                }
                                            }
                                        ]
                                    }
                                ]
                            }
                        ]
                    }
                ]
            },
            "request": {
                "method": "POST",
                "url": "http://shinny.org/us/ny/hrsn/QuestionnaireResponse/SHINNYOutreachQuestionnaireResponse"
            }
        },
        {
            "fullUrl": "http://shinny.org/us/ny/hrsn/QuestionnaireResponse/SHINNYAdministrativeQuestionnaireResponse",
            "resource": {
                "resourceType": "QuestionnaireResponse",
                "id": "SHINNYAdministrativeQuestionnaireResponse",
                "meta": {
                    "lastUpdated": "2024-02-23T00:00:00Z",
                    "profile": [
                        "http://hl7.org/fhir/uv/sdc/StructureDefinition/sdc-questionnaireresponse"
                    ]
                },
                "text": {
                    "status": "generated",
                    "div": "<div xmlns=\"http://www.w3.org/1999/xhtml\"><a name=\"QuestionnaireResponse_SHINNYAdministrativeQuestionnaireResponse\"> </a><p class=\"res-header-id\"><b>Generated Narrative: QuestionnaireResponse SHINNYAdministrativeQuestionnaireResponse</b></p><a name=\"SHINNYAdministrativeQuestionnaireResponse\"> </a><a name=\"hcSHINNYAdministrativeQuestionnaireResponse\"> </a><div style=\"display: inline-block; background-color: #d9e0e7; padding: 6px; margin: 4px; border: 1px solid #8da1b4; border-radius: 5px; line-height: 60%\"><p style=\"margin-bottom: 0px\">Last updated: 2024-02-23 00:00:00+0000</p><p style=\"margin-bottom: 0px\">Profile: <a href=\"http://hl7.org/fhir/uv/sdc/STU3/StructureDefinition-sdc-questionnaireresponse.html\">SDC Questionnaire Response</a></p></div><table border=\"1\" cellpadding=\"0\" cellspacing=\"0\" style=\"border: 1px #F0F0F0 solid; font-size: 11px; font-family: verdana; vertical-align: top;\"><tr style=\"border: 2px #F0F0F0 solid; font-size: 11px; font-family: verdana; vertical-align: top\"><th style=\"vertical-align: top; text-align : var(--ig-left,left); background-color: white; border: 1px #F0F0F0 solid; padding:0px 4px 0px 4px; padding-top: 3px; padding-bottom: 3px\" class=\"hierarchy\"><a href=\"https://hl7.org/fhir/R4/formats.html#table\" title=\"The linkID for the item\">LinkID</a></th><th style=\"vertical-align: top; text-align : var(--ig-left,left); background-color: white; border: 1px #F0F0F0 solid; padding:0px 4px 0px 4px; padding-top: 3px; padding-bottom: 3px\" class=\"hierarchy\"><a href=\"https://hl7.org/fhir/R4/formats.html#table\" title=\"Text for the item\">Text</a></th><th style=\"vertical-align: top; text-align : var(--ig-left,left); background-color: white; border: 1px #F0F0F0 solid; padding:0px 4px 0px 4px; padding-top: 3px; padding-bottom: 3px\" class=\"hierarchy\"><a href=\"https://hl7.org/fhir/R4/formats.html#table\" title=\"Minimum and Maximum # of times the item can appear in the instance\">Definition</a></th><th style=\"vertical-align: top; text-align : var(--ig-left,left); background-color: white; border: 1px #F0F0F0 solid; padding:0px 4px 0px 4px; padding-top: 3px; padding-bottom: 3px\" class=\"hierarchy\"><a href=\"https://hl7.org/fhir/R4/formats.html#table\" title=\"The type of the item\">Answer</a><span style=\"float: right\"><a href=\"https://hl7.org/fhir/R4/formats.html#table\" title=\"Legend for this format\"><img src=\"data:image/png;base64,\" alt=\"doco\" style=\"background-color: inherit\"/></a></span></th></tr><tr style=\"border: 1px #F0F0F0 solid; padding:0px; vertical-align: top; background-color: white\"><td style=\"vertical-align: top; text-align : var(--ig-left,left); background-color: white; border: 1px #F0F0F0 solid; padding:0px 4px 0px 4px; white-space: nowrap; background-image: url(tbl_bck1.png)\" class=\"hierarchy\"><img src=\"tbl_spacer.png\" alt=\".\" style=\"background-color: inherit\" class=\"hierarchy\"/><img src=\"icon_q_root.gif\" alt=\".\" style=\"background-color: white; background-color: inherit\" title=\"QuestionnaireResponseRoot\" class=\"hierarchy\"/> SHINNYAdministrativeQuestionnaireResponse</td><td style=\"vertical-align: top; text-align : var(--ig-left,left); background-color: white; border: 1px #F0F0F0 solid; padding:0px 4px 0px 4px\" class=\"hierarchy\"></td><td style=\"vertical-align: top; text-align : var(--ig-left,left); background-color: white; border: 1px #F0F0F0 solid; padding:0px 4px 0px 4px\" class=\"hierarchy\"></td><td style=\"vertical-align: top; text-align : var(--ig-left,left); background-color: white; border: 1px #F0F0F0 solid; padding:0px 4px 0px 4px\" class=\"hierarchy\">Questionnaire:<a href=\"Questionnaire-SHINNYAdministrativeQuestionnaire.html\">Questionnaire[http://shinny.org/us/ny/hrsn/Questionnaire/SHINNYAdministrativeQuestionnaire|1.6.3]</a></td></tr>\r\n<tr style=\"border: 1px #F0F0F0 solid; padding:0px; vertical-align: top; background-color: #F7F7F7\"><td style=\"vertical-align: top; text-align : var(--ig-left,left); background-color: #F7F7F7; border: 1px #F0F0F0 solid; padding:0px 4px 0px 4px; white-space: nowrap; background-image: url(tbl_bck01.png)\" class=\"hierarchy\"><img src=\"tbl_spacer.png\" alt=\".\" style=\"background-color: inherit\" class=\"hierarchy\"/><img src=\"tbl_vjoin_end.png\" alt=\".\" style=\"background-color: inherit\" class=\"hierarchy\"/><img src=\"icon-q-group.png\" alt=\".\" style=\"background-color: #F7F7F7; background-color: inherit\" title=\"Group\" class=\"hierarchy\"/> administrative-questionnaire</td><td style=\"vertical-align: top; text-align : var(--ig-left,left); background-color: #F7F7F7; border: 1px #F0F0F0 solid; padding:0px 4px 0px 4px\" class=\"hierarchy\">Administrative questions that capture information about the patient's population categorization, specific services needed and/or medical necessities.</td><td style=\"vertical-align: top; text-align : var(--ig-left,left); background-color: #F7F7F7; border: 1px #F0F0F0 solid; padding:0px 4px 0px 4px\" class=\"hierarchy\"/><td style=\"vertical-align: top; text-align : var(--ig-left,left); background-color: #F7F7F7; border: 1px #F0F0F0 solid; padding:0px 4px 0px 4px\" class=\"hierarchy\"/></tr>\r\n<tr style=\"border: 1px #F0F0F0 solid; padding:0px; vertical-align: top; background-color: white\"><td style=\"vertical-align: top; text-align : var(--ig-left,left); background-color: white; border: 1px #F0F0F0 solid; padding:0px 4px 0px 4px; white-space: nowrap; background-image: url(tbl_bck001.png)\" class=\"hierarchy\"><img src=\"tbl_spacer.png\" alt=\".\" style=\"background-color: inherit\" class=\"hierarchy\"/><img src=\"tbl_blank.png\" alt=\".\" style=\"background-color: inherit\" class=\"hierarchy\"/><img src=\"tbl_vjoin_end.png\" alt=\".\" style=\"background-color: inherit\" class=\"hierarchy\"/><img src=\"icon-q-group.png\" alt=\".\" style=\"background-color: white; background-color: inherit\" title=\"Group\" class=\"hierarchy\"/> administrative-questions</td><td style=\"vertical-align: top; text-align : var(--ig-left,left); background-color: white; border: 1px #F0F0F0 solid; padding:0px 4px 0px 4px\" class=\"hierarchy\">Administrative quesitons that verify information about the patient.</td><td style=\"vertical-align: top; text-align : var(--ig-left,left); background-color: white; border: 1px #F0F0F0 solid; padding:0px 4px 0px 4px\" class=\"hierarchy\"/><td style=\"vertical-align: top; text-align : var(--ig-left,left); background-color: white; border: 1px #F0F0F0 solid; padding:0px 4px 0px 4px\" class=\"hierarchy\"/></tr>\r\n<tr style=\"border: 1px #F0F0F0 solid; padding:0px; vertical-align: top; background-color: #F7F7F7\"><td style=\"vertical-align: top; text-align : var(--ig-left,left); background-color: #F7F7F7; border: 1px #F0F0F0 solid; padding:0px 4px 0px 4px; white-space: nowrap; background-image: url(tbl_bck0010.png)\" class=\"hierarchy\"><img src=\"tbl_spacer.png\" alt=\".\" style=\"background-color: inherit\" class=\"hierarchy\"/><img src=\"tbl_blank.png\" alt=\".\" style=\"background-color: inherit\" class=\"hierarchy\"/><img src=\"tbl_blank.png\" alt=\".\" style=\"background-color: inherit\" class=\"hierarchy\"/><img src=\"tbl_vjoin.png\" alt=\".\" style=\"background-color: inherit\" class=\"hierarchy\"/><img src=\"icon-q-string.png\" alt=\".\" style=\"background-color: #F7F7F7; background-color: inherit\" title=\"Item\" class=\"hierarchy\"/> enhanced-population-check</td><td style=\"vertical-align: top; text-align : var(--ig-left,left); background-color: #F7F7F7; border: 1px #F0F0F0 solid; padding:0px 4px 0px 4px\" class=\"hierarchy\">Check populated by entity, conducting the assessment. Captures patient response during the HRSN assessment, resulting in SCN request to update covered population categorization with MCO.</td><td style=\"vertical-align: top; text-align : var(--ig-left,left); background-color: #F7F7F7; border: 1px #F0F0F0 solid; padding:0px 4px 0px 4px\" class=\"hierarchy\"/><td style=\"vertical-align: top; text-align : var(--ig-left,left); background-color: #F7F7F7; border: 1px #F0F0F0 solid; padding:0px 4px 0px 4px\" class=\"hierarchy\"><span><span><a href=\"CodeSystem-SHINNYQuestionnaires.html#SHINNYQuestionnaires-medicaid-high-utilizer\">SHINNY Questionnaires medicaid-high-utilizer</a>: Medicaid High Utilizer</span></span></td></tr>\r\n<tr style=\"border: 1px #F0F0F0 solid; padding:0px; vertical-align: top; background-color: white\"><td style=\"vertical-align: top; text-align : var(--ig-left,left); background-color: white; border: 1px #F0F0F0 solid; padding:0px 4px 0px 4px; white-space: nowrap; background-image: url(tbl_bck0010.png)\" class=\"hierarchy\"><img src=\"tbl_spacer.png\" alt=\".\" style=\"background-color: inherit\" class=\"hierarchy\"/><img src=\"tbl_blank.png\" alt=\".\" style=\"background-color: inherit\" class=\"hierarchy\"/><img src=\"tbl_blank.png\" alt=\".\" style=\"background-color: inherit\" class=\"hierarchy\"/><img src=\"tbl_vjoin.png\" alt=\".\" style=\"background-color: inherit\" class=\"hierarchy\"/><img src=\"icon-q-string.png\" alt=\".\" style=\"background-color: white; background-color: inherit\" title=\"Item\" class=\"hierarchy\"/> service-duplication-check</td><td style=\"vertical-align: top; text-align : var(--ig-left,left); background-color: white; border: 1px #F0F0F0 solid; padding:0px 4px 0px 4px\" class=\"hierarchy\">Check populated by entity, conducting the assessment. Captures patient response during the HRSN assessment, identifying if patient currently receives services that would inhibit ability to deliver any or all NYHER services.</td><td style=\"vertical-align: top; text-align : var(--ig-left,left); background-color: white; border: 1px #F0F0F0 solid; padding:0px 4px 0px 4px\" class=\"hierarchy\"/><td style=\"vertical-align: top; text-align : var(--ig-left,left); background-color: white; border: 1px #F0F0F0 solid; padding:0px 4px 0px 4px\" class=\"hierarchy\"><span><span><a href=\"CodeSystem-SHINNYQuestionnaires.html#SHINNYQuestionnaires-medicaid-advantage-program\">SHINNY Questionnaires medicaid-advantage-program</a>: Medicaid Advantage Program (MAP)</span></span></td></tr>\r\n<tr style=\"border: 1px #F0F0F0 solid; padding:0px; vertical-align: top; background-color: #F7F7F7\"><td style=\"vertical-align: top; text-align : var(--ig-left,left); background-color: #F7F7F7; border: 1px #F0F0F0 solid; padding:0px 4px 0px 4px; white-space: nowrap; background-image: url(tbl_bck0000.png)\" class=\"hierarchy\"><img src=\"tbl_spacer.png\" alt=\".\" style=\"background-color: inherit\" class=\"hierarchy\"/><img src=\"tbl_blank.png\" alt=\".\" style=\"background-color: inherit\" class=\"hierarchy\"/><img src=\"tbl_blank.png\" alt=\".\" style=\"background-color: inherit\" class=\"hierarchy\"/><img src=\"tbl_vjoin_end.png\" alt=\".\" style=\"background-color: inherit\" class=\"hierarchy\"/><img src=\"icon-q-string.png\" alt=\".\" style=\"background-color: #F7F7F7; background-color: inherit\" title=\"Item\" class=\"hierarchy\"/> clinical-criteria-check</td><td style=\"vertical-align: top; text-align : var(--ig-left,left); background-color: #F7F7F7; border: 1px #F0F0F0 solid; padding:0px 4px 0px 4px\" class=\"hierarchy\">Check populated by entity, conducting the assessment. Captures patient response during the HRSN assessment, identifying if patient has the required medical necessity that would satisfy requirement to deliver NYHER service.</td><td style=\"vertical-align: top; text-align : var(--ig-left,left); background-color: #F7F7F7; border: 1px #F0F0F0 solid; padding:0px 4px 0px 4px\" class=\"hierarchy\"/><td style=\"vertical-align: top; text-align : var(--ig-left,left); background-color: #F7F7F7; border: 1px #F0F0F0 solid; padding:0px 4px 0px 4px\" class=\"hierarchy\"><span><span><a href=\"CodeSystem-SHINNYQuestionnaires.html#SHINNYQuestionnaires-chronic-condition\">SHINNY Questionnaires chronic-condition</a>: Chronic Condition</span></span></td></tr>\r\n<tr><td colspan=\"4\" class=\"hierarchy\"><br/><a href=\"https://hl7.org/fhir/R4/formats.html#table\" title=\"Legend for this format\"><img src=\"data:image/png;base64,\" alt=\"doco\" style=\"background-color: inherit\"/> Documentation for this format</a></td></tr></table></div>"
                },
                "questionnaire": "http://shinny.org/us/ny/hrsn/Questionnaire/SHINNYAdministrativeQuestionnaire",
                "status": "completed",
                "subject": {
                    "reference": "Patient/PatientExample"
                },
                "encounter": {
                    "reference": "Encounter/EncounterExample"
                },
                "authored": "2024-01-01T00:00:00Z",
                "item": [
                    {
                        "linkId": "administrative-questionnaire",
                        "text": "Administrative questions that capture information about the patient's population categorization, specific services needed and/or medical necessities.",
                        "item": [
                            {
                                "linkId": "administrative-questions",
                                "text": "Administrative quesitons that verify information about the patient.",
                                "item": [
                                    {
                                        "linkId": "enhanced-population-check",
                                        "text": "Check populated by entity, conducting the assessment. Captures patient response during the HRSN assessment, resulting in SCN request to update covered population categorization with MCO.",
                                        "answer": [
                                            {
                                                "valueCoding": {
                                                    "system": "http://shinny.org/us/ny/hrsn/CodeSystem/SHINNYQuestionnaires",
                                                    "code": "medicaid-high-utilizer",
                                                    "display": "Medicaid High Utilizer"
                                                }
                                            }
                                        ]
                                    },
                                    {
                                        "linkId": "service-duplication-check",
                                        "text": "Check populated by entity, conducting the assessment. Captures patient response during the HRSN assessment, identifying if patient currently receives services that would inhibit ability to deliver any or all NYHER services.",
                                        "answer": [
                                            {
                                                "valueCoding": {
                                                    "system": "http://shinny.org/us/ny/hrsn/CodeSystem/SHINNYQuestionnaires",
                                                    "code": "medicaid-advantage-program",
                                                    "display": "Medicaid Advantage Program (MAP)"
                                                }
                                            }
                                        ]
                                    },
                                    {
                                        "linkId": "clinical-criteria-check",
                                        "text": "Check populated by entity, conducting the assessment. Captures patient response during the HRSN assessment, identifying if patient has the required medical necessity that would satisfy requirement to deliver NYHER service.",
                                        "answer": [
                                            {
                                                "valueCoding": {
                                                    "system": "http://shinny.org/us/ny/hrsn/CodeSystem/SHINNYQuestionnaires",
                                                    "code": "chronic-condition",
                                                    "display": "Chronic Condition"
                                                }
                                            }
                                        ]
                                    }
                                ]
                            }
                        ]
                    }
                ]
            },
            "request": {
                "method": "POST",
                "url": "http://shinny.org/us/ny/hrsn/QuestionnaireResponse/SHINNYAdministrativeQuestionnaireResponse"
            }
        },
        {
            "fullUrl": "http://shinny.org/us/ny/hrsn/QuestionnaireResponse/SHINNYServiceDuplicationQuestionnaireResponse",
            "resource": {
                "resourceType": "QuestionnaireResponse",
                "id": "SHINNYServiceDuplicationQuestionnaireResponse",
                "meta": {
                    "lastUpdated": "2024-02-23T00:00:00Z",
                    "profile": [
                        "http://hl7.org/fhir/uv/sdc/StructureDefinition/sdc-questionnaireresponse"
                    ]
                },
                "text": {
                    "status": "generated",
                    "div": "<div xmlns=\"http://www.w3.org/1999/xhtml\"><a name=\"QuestionnaireResponse_SHINNYServiceDuplicationQuestionnaireResponse\"> </a><p class=\"res-header-id\"><b>Generated Narrative: QuestionnaireResponse SHINNYServiceDuplicationQuestionnaireResponse</b></p><a name=\"SHINNYServiceDuplicationQuestionnaireResponse\"> </a><a name=\"hcSHINNYServiceDuplicationQuestionnaireResponse\"> </a><div style=\"display: inline-block; background-color: #d9e0e7; padding: 6px; margin: 4px; border: 1px solid #8da1b4; border-radius: 5px; line-height: 60%\"><p style=\"margin-bottom: 0px\">Last updated: 2024-02-23 00:00:00+0000</p><p style=\"margin-bottom: 0px\">Profile: <a href=\"http://hl7.org/fhir/uv/sdc/STU3/StructureDefinition-sdc-questionnaireresponse.html\">SDC Questionnaire Response</a></p></div><table border=\"1\" cellpadding=\"0\" cellspacing=\"0\" style=\"border: 1px #F0F0F0 solid; font-size: 11px; font-family: verdana; vertical-align: top;\"><tr style=\"border: 2px #F0F0F0 solid; font-size: 11px; font-family: verdana; vertical-align: top\"><th style=\"vertical-align: top; text-align : var(--ig-left,left); background-color: white; border: 1px #F0F0F0 solid; padding:0px 4px 0px 4px; padding-top: 3px; padding-bottom: 3px\" class=\"hierarchy\"><a href=\"https://hl7.org/fhir/R4/formats.html#table\" title=\"The linkID for the item\">LinkID</a></th><th style=\"vertical-align: top; text-align : var(--ig-left,left); background-color: white; border: 1px #F0F0F0 solid; padding:0px 4px 0px 4px; padding-top: 3px; padding-bottom: 3px\" class=\"hierarchy\"><a href=\"https://hl7.org/fhir/R4/formats.html#table\" title=\"Text for the item\">Text</a></th><th style=\"vertical-align: top; text-align : var(--ig-left,left); background-color: white; border: 1px #F0F0F0 solid; padding:0px 4px 0px 4px; padding-top: 3px; padding-bottom: 3px\" class=\"hierarchy\"><a href=\"https://hl7.org/fhir/R4/formats.html#table\" title=\"Minimum and Maximum # of times the item can appear in the instance\">Definition</a></th><th style=\"vertical-align: top; text-align : var(--ig-left,left); background-color: white; border: 1px #F0F0F0 solid; padding:0px 4px 0px 4px; padding-top: 3px; padding-bottom: 3px\" class=\"hierarchy\"><a href=\"https://hl7.org/fhir/R4/formats.html#table\" title=\"The type of the item\">Answer</a><span style=\"float: right\"><a href=\"https://hl7.org/fhir/R4/formats.html#table\" title=\"Legend for this format\"><img src=\"data:image/png;base64,\" alt=\"doco\" style=\"background-color: inherit\"/></a></span></th></tr><tr style=\"border: 1px #F0F0F0 solid; padding:0px; vertical-align: top; background-color: white\"><td style=\"vertical-align: top; text-align : var(--ig-left,left); background-color: white; border: 1px #F0F0F0 solid; padding:0px 4px 0px 4px; white-space: nowrap; background-image: url(tbl_bck1.png)\" class=\"hierarchy\"><img src=\"tbl_spacer.png\" alt=\".\" style=\"background-color: inherit\" class=\"hierarchy\"/><img src=\"icon_q_root.gif\" alt=\".\" style=\"background-color: white; background-color: inherit\" title=\"QuestionnaireResponseRoot\" class=\"hierarchy\"/> SHINNYServiceDuplicationQuestionnaireResponse</td><td style=\"vertical-align: top; text-align : var(--ig-left,left); background-color: white; border: 1px #F0F0F0 solid; padding:0px 4px 0px 4px\" class=\"hierarchy\"></td><td style=\"vertical-align: top; text-align : var(--ig-left,left); background-color: white; border: 1px #F0F0F0 solid; padding:0px 4px 0px 4px\" class=\"hierarchy\"></td><td style=\"vertical-align: top; text-align : var(--ig-left,left); background-color: white; border: 1px #F0F0F0 solid; padding:0px 4px 0px 4px\" class=\"hierarchy\">Questionnaire:<a href=\"Questionnaire-SHINNYServiceDuplicationQuestionnaire.html\">Questionnaire[http://shinny.org/us/ny/hrsn/Questionnaire/SHINNYServiceDuplicationQuestionnaire|1.6.3]</a></td></tr>\r\n<tr style=\"border: 1px #F0F0F0 solid; padding:0px; vertical-align: top; background-color: #F7F7F7\"><td style=\"vertical-align: top; text-align : var(--ig-left,left); background-color: #F7F7F7; border: 1px #F0F0F0 solid; padding:0px 4px 0px 4px; white-space: nowrap; background-image: url(tbl_bck01.png)\" class=\"hierarchy\"><img src=\"tbl_spacer.png\" alt=\".\" style=\"background-color: inherit\" class=\"hierarchy\"/><img src=\"tbl_vjoin_end.png\" alt=\".\" style=\"background-color: inherit\" class=\"hierarchy\"/><img src=\"icon-q-group.png\" alt=\".\" style=\"background-color: #F7F7F7; background-color: inherit\" title=\"Group\" class=\"hierarchy\"/> service-duplication-questionnaire</td><td style=\"vertical-align: top; text-align : var(--ig-left,left); background-color: #F7F7F7; border: 1px #F0F0F0 solid; padding:0px 4px 0px 4px\" class=\"hierarchy\">Indicator questions recording whether the patient receives assistance from a variety of programs, as well as other social and healthcare needs.</td><td style=\"vertical-align: top; text-align : var(--ig-left,left); background-color: #F7F7F7; border: 1px #F0F0F0 solid; padding:0px 4px 0px 4px\" class=\"hierarchy\"/><td style=\"vertical-align: top; text-align : var(--ig-left,left); background-color: #F7F7F7; border: 1px #F0F0F0 solid; padding:0px 4px 0px 4px\" class=\"hierarchy\"/></tr>\r\n<tr style=\"border: 1px #F0F0F0 solid; padding:0px; vertical-align: top; background-color: white\"><td style=\"vertical-align: top; text-align : var(--ig-left,left); background-color: white; border: 1px #F0F0F0 solid; padding:0px 4px 0px 4px; white-space: nowrap; background-image: url(tbl_bck001.png)\" class=\"hierarchy\"><img src=\"tbl_spacer.png\" alt=\".\" style=\"background-color: inherit\" class=\"hierarchy\"/><img src=\"tbl_blank.png\" alt=\".\" style=\"background-color: inherit\" class=\"hierarchy\"/><img src=\"tbl_vjoin_end.png\" alt=\".\" style=\"background-color: inherit\" class=\"hierarchy\"/><img src=\"icon-q-group.png\" alt=\".\" style=\"background-color: white; background-color: inherit\" title=\"Group\" class=\"hierarchy\"/> service-duplication-questions</td><td style=\"vertical-align: top; text-align : var(--ig-left,left); background-color: white; border: 1px #F0F0F0 solid; padding:0px 4px 0px 4px\" class=\"hierarchy\">Questions regarding service duplication.</td><td style=\"vertical-align: top; text-align : var(--ig-left,left); background-color: white; border: 1px #F0F0F0 solid; padding:0px 4px 0px 4px\" class=\"hierarchy\"/><td style=\"vertical-align: top; text-align : var(--ig-left,left); background-color: white; border: 1px #F0F0F0 solid; padding:0px 4px 0px 4px\" class=\"hierarchy\"/></tr>\r\n<tr style=\"border: 1px #F0F0F0 solid; padding:0px; vertical-align: top; background-color: #F7F7F7\"><td style=\"vertical-align: top; text-align : var(--ig-left,left); background-color: #F7F7F7; border: 1px #F0F0F0 solid; padding:0px 4px 0px 4px; white-space: nowrap; background-image: url(tbl_bck0010.png)\" class=\"hierarchy\"><img src=\"tbl_spacer.png\" alt=\".\" style=\"background-color: inherit\" class=\"hierarchy\"/><img src=\"tbl_blank.png\" alt=\".\" style=\"background-color: inherit\" class=\"hierarchy\"/><img src=\"tbl_blank.png\" alt=\".\" style=\"background-color: inherit\" class=\"hierarchy\"/><img src=\"tbl_vjoin.png\" alt=\".\" style=\"background-color: inherit\" class=\"hierarchy\"/><img src=\"icon-q-string.png\" alt=\".\" style=\"background-color: #F7F7F7; background-color: inherit\" title=\"Item\" class=\"hierarchy\"/> housing-program</td><td style=\"vertical-align: top; text-align : var(--ig-left,left); background-color: #F7F7F7; border: 1px #F0F0F0 solid; padding:0px 4px 0px 4px\" class=\"hierarchy\">Indicator, populated by entity, conducting the assessment. Captures patient response during the HRSN assessment, identifying if patient currently receives or is on any housing waitlists (e.g., HUD. Section 8, local housing authority, or other voucher programs).</td><td style=\"vertical-align: top; text-align : var(--ig-left,left); background-color: #F7F7F7; border: 1px #F0F0F0 solid; padding:0px 4px 0px 4px\" class=\"hierarchy\"/><td style=\"vertical-align: top; text-align : var(--ig-left,left); background-color: #F7F7F7; border: 1px #F0F0F0 solid; padding:0px 4px 0px 4px\" class=\"hierarchy\"><span><span><a href=\"https://loinc.org/LA32-8\">LOINC LA32-8</a>: No</span></span></td></tr>\r\n<tr style=\"border: 1px #F0F0F0 solid; padding:0px; vertical-align: top; background-color: white\"><td style=\"vertical-align: top; text-align : var(--ig-left,left); background-color: white; border: 1px #F0F0F0 solid; padding:0px 4px 0px 4px; white-space: nowrap; background-image: url(tbl_bck0010.png)\" class=\"hierarchy\"><img src=\"tbl_spacer.png\" alt=\".\" style=\"background-color: inherit\" class=\"hierarchy\"/><img src=\"tbl_blank.png\" alt=\".\" style=\"background-color: inherit\" class=\"hierarchy\"/><img src=\"tbl_blank.png\" alt=\".\" style=\"background-color: inherit\" class=\"hierarchy\"/><img src=\"tbl_vjoin.png\" alt=\".\" style=\"background-color: inherit\" class=\"hierarchy\"/><img src=\"icon-q-string.png\" alt=\".\" style=\"background-color: white; background-color: inherit\" title=\"Item\" class=\"hierarchy\"/> nutritional-education-program</td><td style=\"vertical-align: top; text-align : var(--ig-left,left); background-color: white; border: 1px #F0F0F0 solid; padding:0px 4px 0px 4px\" class=\"hierarchy\">Indicator, populated by entity, conducting the assessment. Captures patient response during the HRSN assessment, identifying if patient currently receives nutritional counseling or education.</td><td style=\"vertical-align: top; text-align : var(--ig-left,left); background-color: white; border: 1px #F0F0F0 solid; padding:0px 4px 0px 4px\" class=\"hierarchy\"/><td style=\"vertical-align: top; text-align : var(--ig-left,left); background-color: white; border: 1px #F0F0F0 solid; padding:0px 4px 0px 4px\" class=\"hierarchy\"><span><span><a href=\"https://loinc.org/LA32-8\">LOINC LA32-8</a>: No</span></span></td></tr>\r\n<tr style=\"border: 1px #F0F0F0 solid; padding:0px; vertical-align: top; background-color: #F7F7F7\"><td style=\"vertical-align: top; text-align : var(--ig-left,left); background-color: #F7F7F7; border: 1px #F0F0F0 solid; padding:0px 4px 0px 4px; white-space: nowrap; background-image: url(tbl_bck0010.png)\" class=\"hierarchy\"><img src=\"tbl_spacer.png\" alt=\".\" style=\"background-color: inherit\" class=\"hierarchy\"/><img src=\"tbl_blank.png\" alt=\".\" style=\"background-color: inherit\" class=\"hierarchy\"/><img src=\"tbl_blank.png\" alt=\".\" style=\"background-color: inherit\" class=\"hierarchy\"/><img src=\"tbl_vjoin.png\" alt=\".\" style=\"background-color: inherit\" class=\"hierarchy\"/><img src=\"icon-q-string.png\" alt=\".\" style=\"background-color: #F7F7F7; background-color: inherit\" title=\"Item\" class=\"hierarchy\"/> nutritional-services-program</td><td style=\"vertical-align: top; text-align : var(--ig-left,left); background-color: #F7F7F7; border: 1px #F0F0F0 solid; padding:0px 4px 0px 4px\" class=\"hierarchy\">Indicator, populated by entity, conducting the assessment. Captures patient response during the HRSN assessment, identifying if patient is actively engaged in a nutrition program.</td><td style=\"vertical-align: top; text-align : var(--ig-left,left); background-color: #F7F7F7; border: 1px #F0F0F0 solid; padding:0px 4px 0px 4px\" class=\"hierarchy\"/><td style=\"vertical-align: top; text-align : var(--ig-left,left); background-color: #F7F7F7; border: 1px #F0F0F0 solid; padding:0px 4px 0px 4px\" class=\"hierarchy\"><span><span><a href=\"https://loinc.org/LA32-8\">LOINC LA32-8</a>: No</span></span></td></tr>\r\n<tr style=\"border: 1px #F0F0F0 solid; padding:0px; vertical-align: top; background-color: white\"><td style=\"vertical-align: top; text-align : var(--ig-left,left); background-color: white; border: 1px #F0F0F0 solid; padding:0px 4px 0px 4px; white-space: nowrap; background-image: url(tbl_bck0010.png)\" class=\"hierarchy\"><img src=\"tbl_spacer.png\" alt=\".\" style=\"background-color: inherit\" class=\"hierarchy\"/><img src=\"tbl_blank.png\" alt=\".\" style=\"background-color: inherit\" class=\"hierarchy\"/><img src=\"tbl_blank.png\" alt=\".\" style=\"background-color: inherit\" class=\"hierarchy\"/><img src=\"tbl_vjoin.png\" alt=\".\" style=\"background-color: inherit\" class=\"hierarchy\"/><img src=\"icon-q-string.png\" alt=\".\" style=\"background-color: white; background-color: inherit\" title=\"Item\" class=\"hierarchy\"/> food-service-program</td><td style=\"vertical-align: top; text-align : var(--ig-left,left); background-color: white; border: 1px #F0F0F0 solid; padding:0px 4px 0px 4px\" class=\"hierarchy\">Indicator, populated by entity, conducting the assessment. Captures patient response during the HRSN assessment, identifying if patient currently receives any home-delivered meals or food services.</td><td style=\"vertical-align: top; text-align : var(--ig-left,left); background-color: white; border: 1px #F0F0F0 solid; padding:0px 4px 0px 4px\" class=\"hierarchy\"/><td style=\"vertical-align: top; text-align : var(--ig-left,left); background-color: white; border: 1px #F0F0F0 solid; padding:0px 4px 0px 4px\" class=\"hierarchy\"><span><span><a href=\"https://loinc.org/LA32-8\">LOINC LA32-8</a>: No</span></span></td></tr>\r\n<tr style=\"border: 1px #F0F0F0 solid; padding:0px; vertical-align: top; background-color: #F7F7F7\"><td style=\"vertical-align: top; text-align : var(--ig-left,left); background-color: #F7F7F7; border: 1px #F0F0F0 solid; padding:0px 4px 0px 4px; white-space: nowrap; background-image: url(tbl_bck0010.png)\" class=\"hierarchy\"><img src=\"tbl_spacer.png\" alt=\".\" style=\"background-color: inherit\" class=\"hierarchy\"/><img src=\"tbl_blank.png\" alt=\".\" style=\"background-color: inherit\" class=\"hierarchy\"/><img src=\"tbl_blank.png\" alt=\".\" style=\"background-color: inherit\" class=\"hierarchy\"/><img src=\"tbl_vjoin.png\" alt=\".\" style=\"background-color: inherit\" class=\"hierarchy\"/><img src=\"icon-q-string.png\" alt=\".\" style=\"background-color: #F7F7F7; background-color: inherit\" title=\"Item\" class=\"hierarchy\"/> snapp-program</td><td style=\"vertical-align: top; text-align : var(--ig-left,left); background-color: #F7F7F7; border: 1px #F0F0F0 solid; padding:0px 4px 0px 4px\" class=\"hierarchy\">Indicator, populated by entity, conducting the assessment. Captures patient response during the HRSN assessment,  identifying if patient is currently engaged in SNAP.</td><td style=\"vertical-align: top; text-align : var(--ig-left,left); background-color: #F7F7F7; border: 1px #F0F0F0 solid; padding:0px 4px 0px 4px\" class=\"hierarchy\"/><td style=\"vertical-align: top; text-align : var(--ig-left,left); background-color: #F7F7F7; border: 1px #F0F0F0 solid; padding:0px 4px 0px 4px\" class=\"hierarchy\"><span><span><a href=\"https://loinc.org/LA32-8\">LOINC LA32-8</a>: No</span></span></td></tr>\r\n<tr style=\"border: 1px #F0F0F0 solid; padding:0px; vertical-align: top; background-color: white\"><td style=\"vertical-align: top; text-align : var(--ig-left,left); background-color: white; border: 1px #F0F0F0 solid; padding:0px 4px 0px 4px; white-space: nowrap; background-image: url(tbl_bck0010.png)\" class=\"hierarchy\"><img src=\"tbl_spacer.png\" alt=\".\" style=\"background-color: inherit\" class=\"hierarchy\"/><img src=\"tbl_blank.png\" alt=\".\" style=\"background-color: inherit\" class=\"hierarchy\"/><img src=\"tbl_blank.png\" alt=\".\" style=\"background-color: inherit\" class=\"hierarchy\"/><img src=\"tbl_vjoin.png\" alt=\".\" style=\"background-color: inherit\" class=\"hierarchy\"/><img src=\"icon-q-string.png\" alt=\".\" style=\"background-color: white; background-color: inherit\" title=\"Item\" class=\"hierarchy\"/> wic-program</td><td style=\"vertical-align: top; text-align : var(--ig-left,left); background-color: white; border: 1px #F0F0F0 solid; padding:0px 4px 0px 4px\" class=\"hierarchy\">Indicator, populated by entity, conducting the assessment. Captures patient response during the HRSN assessment,  identifying if patient is currently engaged in WIC.</td><td style=\"vertical-align: top; text-align : var(--ig-left,left); background-color: white; border: 1px #F0F0F0 solid; padding:0px 4px 0px 4px\" class=\"hierarchy\"/><td style=\"vertical-align: top; text-align : var(--ig-left,left); background-color: white; border: 1px #F0F0F0 solid; padding:0px 4px 0px 4px\" class=\"hierarchy\"><span><span><a href=\"https://loinc.org/LA32-8\">LOINC LA32-8</a>: No</span></span></td></tr>\r\n<tr style=\"border: 1px #F0F0F0 solid; padding:0px; vertical-align: top; background-color: #F7F7F7\"><td style=\"vertical-align: top; text-align : var(--ig-left,left); background-color: #F7F7F7; border: 1px #F0F0F0 solid; padding:0px 4px 0px 4px; white-space: nowrap; background-image: url(tbl_bck0010.png)\" class=\"hierarchy\"><img src=\"tbl_spacer.png\" alt=\".\" style=\"background-color: inherit\" class=\"hierarchy\"/><img src=\"tbl_blank.png\" alt=\".\" style=\"background-color: inherit\" class=\"hierarchy\"/><img src=\"tbl_blank.png\" alt=\".\" style=\"background-color: inherit\" class=\"hierarchy\"/><img src=\"tbl_vjoin.png\" alt=\".\" style=\"background-color: inherit\" class=\"hierarchy\"/><img src=\"icon-q-string.png\" alt=\".\" style=\"background-color: #F7F7F7; background-color: inherit\" title=\"Item\" class=\"hierarchy\"/> tanf-program</td><td style=\"vertical-align: top; text-align : var(--ig-left,left); background-color: #F7F7F7; border: 1px #F0F0F0 solid; padding:0px 4px 0px 4px\" class=\"hierarchy\">Indicator, populated by entity, conducting the assessment. Captures patient response during the HRSN assessment,  identifying if patient is currently engaged in TANF.</td><td style=\"vertical-align: top; text-align : var(--ig-left,left); background-color: #F7F7F7; border: 1px #F0F0F0 solid; padding:0px 4px 0px 4px\" class=\"hierarchy\"/><td style=\"vertical-align: top; text-align : var(--ig-left,left); background-color: #F7F7F7; border: 1px #F0F0F0 solid; padding:0px 4px 0px 4px\" class=\"hierarchy\"><span><span><a href=\"https://loinc.org/LA32-8\">LOINC LA32-8</a>: No</span></span></td></tr>\r\n<tr style=\"border: 1px #F0F0F0 solid; padding:0px; vertical-align: top; background-color: white\"><td style=\"vertical-align: top; text-align : var(--ig-left,left); background-color: white; border: 1px #F0F0F0 solid; padding:0px 4px 0px 4px; white-space: nowrap; background-image: url(tbl_bck0010.png)\" class=\"hierarchy\"><img src=\"tbl_spacer.png\" alt=\".\" style=\"background-color: inherit\" class=\"hierarchy\"/><img src=\"tbl_blank.png\" alt=\".\" style=\"background-color: inherit\" class=\"hierarchy\"/><img src=\"tbl_blank.png\" alt=\".\" style=\"background-color: inherit\" class=\"hierarchy\"/><img src=\"tbl_vjoin.png\" alt=\".\" style=\"background-color: inherit\" class=\"hierarchy\"/><img src=\"icon-q-string.png\" alt=\".\" style=\"background-color: white; background-color: inherit\" title=\"Item\" class=\"hierarchy\"/> transportation-program</td><td style=\"vertical-align: top; text-align : var(--ig-left,left); background-color: white; border: 1px #F0F0F0 solid; padding:0px 4px 0px 4px\" class=\"hierarchy\">Indicator, populated by entity, conducting the assessment. Captures patient response during the HRSN assessment,  identifying if patient is currently engaged in Transportation services.</td><td style=\"vertical-align: top; text-align : var(--ig-left,left); background-color: white; border: 1px #F0F0F0 solid; padding:0px 4px 0px 4px\" class=\"hierarchy\"/><td style=\"vertical-align: top; text-align : var(--ig-left,left); background-color: white; border: 1px #F0F0F0 solid; padding:0px 4px 0px 4px\" class=\"hierarchy\"><span><span><a href=\"https://loinc.org/LA33-6\">LOINC LA33-6</a>: Yes</span></span></td></tr>\r\n<tr style=\"border: 1px #F0F0F0 solid; padding:0px; vertical-align: top; background-color: #F7F7F7\"><td style=\"vertical-align: top; text-align : var(--ig-left,left); background-color: #F7F7F7; border: 1px #F0F0F0 solid; padding:0px 4px 0px 4px; white-space: nowrap; background-image: url(tbl_bck0010.png)\" class=\"hierarchy\"><img src=\"tbl_spacer.png\" alt=\".\" style=\"background-color: inherit\" class=\"hierarchy\"/><img src=\"tbl_blank.png\" alt=\".\" style=\"background-color: inherit\" class=\"hierarchy\"/><img src=\"tbl_blank.png\" alt=\".\" style=\"background-color: inherit\" class=\"hierarchy\"/><img src=\"tbl_vjoin.png\" alt=\".\" style=\"background-color: inherit\" class=\"hierarchy\"/><img src=\"icon-q-string.png\" alt=\".\" style=\"background-color: #F7F7F7; background-color: inherit\" title=\"Item\" class=\"hierarchy\"/> medication-requiring-refrigeration</td><td style=\"vertical-align: top; text-align : var(--ig-left,left); background-color: #F7F7F7; border: 1px #F0F0F0 solid; padding:0px 4px 0px 4px\" class=\"hierarchy\">Indicator, populated by entity, conducting the assessment. Captures patient response during the HRSN assessment,  identifying if patient is currently prescribed medication, requiring refrigeration for the management of a chronic condition.</td><td style=\"vertical-align: top; text-align : var(--ig-left,left); background-color: #F7F7F7; border: 1px #F0F0F0 solid; padding:0px 4px 0px 4px\" class=\"hierarchy\"/><td style=\"vertical-align: top; text-align : var(--ig-left,left); background-color: #F7F7F7; border: 1px #F0F0F0 solid; padding:0px 4px 0px 4px\" class=\"hierarchy\"><span><span><a href=\"https://loinc.org/LA32-8\">LOINC LA32-8</a>: No</span></span></td></tr>\r\n<tr style=\"border: 1px #F0F0F0 solid; padding:0px; vertical-align: top; background-color: white\"><td style=\"vertical-align: top; text-align : var(--ig-left,left); background-color: white; border: 1px #F0F0F0 solid; padding:0px 4px 0px 4px; white-space: nowrap; background-image: url(tbl_bck0010.png)\" class=\"hierarchy\"><img src=\"tbl_spacer.png\" alt=\".\" style=\"background-color: inherit\" class=\"hierarchy\"/><img src=\"tbl_blank.png\" alt=\".\" style=\"background-color: inherit\" class=\"hierarchy\"/><img src=\"tbl_blank.png\" alt=\".\" style=\"background-color: inherit\" class=\"hierarchy\"/><img src=\"tbl_vjoin.png\" alt=\".\" style=\"background-color: inherit\" class=\"hierarchy\"/><img src=\"icon-q-string.png\" alt=\".\" style=\"background-color: white; background-color: inherit\" title=\"Item\" class=\"hierarchy\"/> breast-milk-requiring-refrigeration</td><td style=\"vertical-align: top; text-align : var(--ig-left,left); background-color: white; border: 1px #F0F0F0 solid; padding:0px 4px 0px 4px\" class=\"hierarchy\">Indicator, populated by entity, conducting the assessment. Captures patient response during the HRSN assessment,  identifying if patient is a pregnant/postpartum persons that require a refrigeration for breast milk.</td><td style=\"vertical-align: top; text-align : var(--ig-left,left); background-color: white; border: 1px #F0F0F0 solid; padding:0px 4px 0px 4px\" class=\"hierarchy\"/><td style=\"vertical-align: top; text-align : var(--ig-left,left); background-color: white; border: 1px #F0F0F0 solid; padding:0px 4px 0px 4px\" class=\"hierarchy\"><span><span><a href=\"https://loinc.org/LA32-8\">LOINC LA32-8</a>: No</span></span></td></tr>\r\n<tr style=\"border: 1px #F0F0F0 solid; padding:0px; vertical-align: top; background-color: #F7F7F7\"><td style=\"vertical-align: top; text-align : var(--ig-left,left); background-color: #F7F7F7; border: 1px #F0F0F0 solid; padding:0px 4px 0px 4px; white-space: nowrap; background-image: url(tbl_bck0010.png)\" class=\"hierarchy\"><img src=\"tbl_spacer.png\" alt=\".\" style=\"background-color: inherit\" class=\"hierarchy\"/><img src=\"tbl_blank.png\" alt=\".\" style=\"background-color: inherit\" class=\"hierarchy\"/><img src=\"tbl_blank.png\" alt=\".\" style=\"background-color: inherit\" class=\"hierarchy\"/><img src=\"tbl_vjoin.png\" alt=\".\" style=\"background-color: inherit\" class=\"hierarchy\"/><img src=\"icon-q-string.png\" alt=\".\" style=\"background-color: #F7F7F7; background-color: inherit\" title=\"Item\" class=\"hierarchy\"/> medical-respite</td><td style=\"vertical-align: top; text-align : var(--ig-left,left); background-color: #F7F7F7; border: 1px #F0F0F0 solid; padding:0px 4px 0px 4px\" class=\"hierarchy\">Indicator, populated by entity, conducting the assessment. Captures patient response during the HRSN assessment,  identifying if patient meets the qualifications for medical respite (see notes).</td><td style=\"vertical-align: top; text-align : var(--ig-left,left); background-color: #F7F7F7; border: 1px #F0F0F0 solid; padding:0px 4px 0px 4px\" class=\"hierarchy\"/><td style=\"vertical-align: top; text-align : var(--ig-left,left); background-color: #F7F7F7; border: 1px #F0F0F0 solid; padding:0px 4px 0px 4px\" class=\"hierarchy\"><span><span><a href=\"https://loinc.org/LA32-8\">LOINC LA32-8</a>: No</span></span></td></tr>\r\n<tr style=\"border: 1px #F0F0F0 solid; padding:0px; vertical-align: top; background-color: white\"><td style=\"vertical-align: top; text-align : var(--ig-left,left); background-color: white; border: 1px #F0F0F0 solid; padding:0px 4px 0px 4px; white-space: nowrap; background-image: url(tbl_bck0000.png)\" class=\"hierarchy\"><img src=\"tbl_spacer.png\" alt=\".\" style=\"background-color: inherit\" class=\"hierarchy\"/><img src=\"tbl_blank.png\" alt=\".\" style=\"background-color: inherit\" class=\"hierarchy\"/><img src=\"tbl_blank.png\" alt=\".\" style=\"background-color: inherit\" class=\"hierarchy\"/><img src=\"tbl_vjoin_end.png\" alt=\".\" style=\"background-color: inherit\" class=\"hierarchy\"/><img src=\"icon-q-string.png\" alt=\".\" style=\"background-color: white; background-color: inherit\" title=\"Item\" class=\"hierarchy\"/> childcare-assistance</td><td style=\"vertical-align: top; text-align : var(--ig-left,left); background-color: white; border: 1px #F0F0F0 solid; padding:0px 4px 0px 4px\" class=\"hierarchy\">Indicator, populated by entity, conducting the assessment. Captures patient response during the HRSN assessment,  identifying if patient needs assistance with childcare.</td><td style=\"vertical-align: top; text-align : var(--ig-left,left); background-color: white; border: 1px #F0F0F0 solid; padding:0px 4px 0px 4px\" class=\"hierarchy\"/><td style=\"vertical-align: top; text-align : var(--ig-left,left); background-color: white; border: 1px #F0F0F0 solid; padding:0px 4px 0px 4px\" class=\"hierarchy\"><span><span><a href=\"https://loinc.org/LA32-8\">LOINC LA32-8</a>: No</span></span></td></tr>\r\n<tr><td colspan=\"4\" class=\"hierarchy\"><br/><a href=\"https://hl7.org/fhir/R4/formats.html#table\" title=\"Legend for this format\"><img src=\"data:image/png;base64,\" alt=\"doco\" style=\"background-color: inherit\"/> Documentation for this format</a></td></tr></table></div>"
                },
                "questionnaire": "http://shinny.org/us/ny/hrsn/Questionnaire/SHINNYServiceDuplicationQuestionnaire",
                "status": "completed",
                "subject": {
                    "reference": "Patient/PatientExample"
                },
                "encounter": {
                    "reference": "Encounter/EncounterExample"
                },
                "authored": "2024-01-01T00:00:00Z",
                "item": [
                    {
                        "linkId": "service-duplication-questionnaire",
                        "text": "Indicator questions recording whether the patient receives assistance from a variety of programs, as well as other social and healthcare needs.",
                        "item": [
                            {
                                "linkId": "service-duplication-questions",
                                "text": "Questions regarding service duplication.",
                                "item": [
                                    {
                                        "linkId": "housing-program",
                                        "text": "Indicator, populated by entity, conducting the assessment. Captures patient response during the HRSN assessment, identifying if patient currently receives or is on any housing waitlists (e.g., HUD. Section 8, local housing authority, or other voucher programs).",
                                        "answer": [
                                            {
                                                "valueCoding": {
                                                    "system": "http://loinc.org",
                                                    "code": "LA32-8",
                                                    "display": "No"
                                                }
                                            }
                                        ]
                                    },
                                    {
                                        "linkId": "nutritional-education-program",
                                        "text": "Indicator, populated by entity, conducting the assessment. Captures patient response during the HRSN assessment, identifying if patient currently receives nutritional counseling or education.",
                                        "answer": [
                                            {
                                                "valueCoding": {
                                                    "system": "http://loinc.org",
                                                    "code": "LA32-8",
                                                    "display": "No"
                                                }
                                            }
                                        ]
                                    },
                                    {
                                        "linkId": "nutritional-services-program",
                                        "text": "Indicator, populated by entity, conducting the assessment. Captures patient response during the HRSN assessment, identifying if patient is actively engaged in a nutrition program.",
                                        "answer": [
                                            {
                                                "valueCoding": {
                                                    "system": "http://loinc.org",
                                                    "code": "LA32-8",
                                                    "display": "No"
                                                }
                                            }
                                        ]
                                    },
                                    {
                                        "linkId": "food-service-program",
                                        "text": "Indicator, populated by entity, conducting the assessment. Captures patient response during the HRSN assessment, identifying if patient currently receives any home-delivered meals or food services.",
                                        "answer": [
                                            {
                                                "valueCoding": {
                                                    "system": "http://loinc.org",
                                                    "code": "LA32-8",
                                                    "display": "No"
                                                }
                                            }
                                        ]
                                    },
                                    {
                                        "linkId": "snapp-program",
                                        "text": "Indicator, populated by entity, conducting the assessment. Captures patient response during the HRSN assessment,  identifying if patient is currently engaged in SNAP.",
                                        "answer": [
                                            {
                                                "valueCoding": {
                                                    "system": "http://loinc.org",
                                                    "code": "LA32-8",
                                                    "display": "No"
                                                }
                                            }
                                        ]
                                    },
                                    {
                                        "linkId": "wic-program",
                                        "text": "Indicator, populated by entity, conducting the assessment. Captures patient response during the HRSN assessment,  identifying if patient is currently engaged in WIC.",
                                        "answer": [
                                            {
                                                "valueCoding": {
                                                    "system": "http://loinc.org",
                                                    "code": "LA32-8",
                                                    "display": "No"
                                                }
                                            }
                                        ]
                                    },
                                    {
                                        "linkId": "tanf-program",
                                        "text": "Indicator, populated by entity, conducting the assessment. Captures patient response during the HRSN assessment,  identifying if patient is currently engaged in TANF.",
                                        "answer": [
                                            {
                                                "valueCoding": {
                                                    "system": "http://loinc.org",
                                                    "code": "LA32-8",
                                                    "display": "No"
                                                }
                                            }
                                        ]
                                    },
                                    {
                                        "linkId": "transportation-program",
                                        "text": "Indicator, populated by entity, conducting the assessment. Captures patient response during the HRSN assessment,  identifying if patient is currently engaged in Transportation services.",
                                        "answer": [
                                            {
                                                "valueCoding": {
                                                    "system": "http://loinc.org",
                                                    "code": "LA33-6",
                                                    "display": "Yes"
                                                }
                                            }
                                        ]
                                    },
                                    {
                                        "linkId": "medication-requiring-refrigeration",
                                        "text": "Indicator, populated by entity, conducting the assessment. Captures patient response during the HRSN assessment,  identifying if patient is currently prescribed medication, requiring refrigeration for the management of a chronic condition.",
                                        "answer": [
                                            {
                                                "valueCoding": {
                                                    "system": "http://loinc.org",
                                                    "code": "LA32-8",
                                                    "display": "No"
                                                }
                                            }
                                        ]
                                    },
                                    {
                                        "linkId": "breast-milk-requiring-refrigeration",
                                        "text": "Indicator, populated by entity, conducting the assessment. Captures patient response during the HRSN assessment,  identifying if patient is a pregnant/postpartum persons that require a refrigeration for breast milk.",
                                        "answer": [
                                            {
                                                "valueCoding": {
                                                    "system": "http://loinc.org",
                                                    "code": "LA32-8",
                                                    "display": "No"
                                                }
                                            }
                                        ]
                                    },
                                    {
                                        "linkId": "medical-respite",
                                        "text": "Indicator, populated by entity, conducting the assessment. Captures patient response during the HRSN assessment,  identifying if patient meets the qualifications for medical respite (see notes).",
                                        "answer": [
                                            {
                                                "valueCoding": {
                                                    "system": "http://loinc.org",
                                                    "code": "LA32-8",
                                                    "display": "No"
                                                }
                                            }
                                        ]
                                    },
                                    {
                                        "linkId": "childcare-assistance",
                                        "text": "Indicator, populated by entity, conducting the assessment. Captures patient response during the HRSN assessment,  identifying if patient needs assistance with childcare.",
                                        "answer": [
                                            {
                                                "valueCoding": {
                                                    "system": "http://loinc.org",
                                                    "code": "LA32-8",
                                                    "display": "No"
                                                }
                                            }
                                        ]
                                    }
                                ]
                            }
                        ]
                    }
                ]
            },
            "request": {
                "method": "POST",
                "url": "http://shinny.org/us/ny/hrsn/QuestionnaireResponse/SHINNYServiceDuplicationQuestionnaireResponse"
            }
        },
        {
            "fullUrl": "http://shinny.org/us/ny/hrsn/Location/LocationExample-SCN",
            "resource": {
                "resourceType": "Location",
                "id": "LocationExample-SCN",
                "meta": {
                    "lastUpdated": "2024-02-23T00:00:00Z",
                    "profile": [
                        "http://hl7.org/fhir/us/sdoh-clinicalcare/StructureDefinition/SDOHCC-Location"
                    ]
                },
                "text": {
                    "status": "generated",
                    "div": "<div xmlns=\"http://www.w3.org/1999/xhtml\"><a name=\"Location_LocationExample-SCN\"> </a><p class=\"res-header-id\"><b>Generated Narrative: Location LocationExample-SCN</b></p><a name=\"LocationExample-SCN\"> </a><a name=\"hcLocationExample-SCN\"> </a><div style=\"display: inline-block; background-color: #d9e0e7; padding: 6px; margin: 4px; border: 1px solid #8da1b4; border-radius: 5px; line-height: 60%\"><p style=\"margin-bottom: 0px\">Last updated: 2024-02-23 00:00:00+0000</p><p style=\"margin-bottom: 0px\">Profile: <a href=\"http://hl7.org/fhir/us/sdoh-clinicalcare/STU2.2/StructureDefinition-SDOHCC-Location.html\">SDOHCC Location</a></p></div><p><b>status</b>: Active</p><p><b>name</b>: downtown location</p><p><b>type</b>: <span title=\"Codes:{http://terminology.hl7.org/CodeSystem/v3-RoleCode CSC}\">community service center</span></p><p><b>address</b>: 115 Broadway Suite #1601 New York NY 10006 </p><p><b>physicalType</b>: <span title=\"Codes:{http://terminology.hl7.org/CodeSystem/location-physical-type bu}\">Building</span></p><p><b>managingOrganization</b>: <a href=\"Organization-OrganizationExampleOther-SCN1.html\">Organization Care Ridge SCN</a></p></div>"
                },
                "status": "active",
                "name": "downtown location",
                "type": [
                    {
                        "coding": [
                            {
                                "system": "http://terminology.hl7.org/CodeSystem/v3-RoleCode",
                                "code": "CSC"
                            }
                        ]
                    }
                ],
                "address": {
                    "id": "SCNAddressLocation",
                    "type": "physical",
                    "line": [
                        "115 Broadway Suite #1601"
                    ],
                    "city": "New York",
                    "district": "MANHATTAN",
                    "state": "NY",
                    "postalCode": "10006"
                },
                "physicalType": {
                    "coding": [
                        {
                            "system": "http://terminology.hl7.org/CodeSystem/location-physical-type",
                            "code": "bu"
                        }
                    ]
                },
                "managingOrganization": {
                    "reference": "Organization/OrganizationExampleOther-SCN1"
                }
            },
            "request": {
                "method": "POST",
                "url": "http://shinny.org/us/ny/hrsn/Location/LocationExample-SCN"
            }
        },
        {
            "fullUrl": "http://shinny.org/us/ny/hrsn/QuestionnaireResponse/SHINNYHRSNOutreachQuestionnaireResponse",
            "resource": {
                "resourceType": "QuestionnaireResponse",
                "id": "SHINNYHRSNOutreachQuestionnaireResponse",
                "meta": {
                    "lastUpdated": "2024-02-23T00:00:00Z",
                    "profile": [
                        "http://hl7.org/fhir/uv/sdc/StructureDefinition/sdc-questionnaireresponse"
                    ]
                },
                "text": {
                    "status": "generated",
                    "div": "<div xmlns=\"http://www.w3.org/1999/xhtml\"><a name=\"QuestionnaireResponse_SHINNYHRSNOutreachQuestionnaireResponse\"> </a><p class=\"res-header-id\"><b>Generated Narrative: QuestionnaireResponse SHINNYHRSNOutreachQuestionnaireResponse</b></p><a name=\"SHINNYHRSNOutreachQuestionnaireResponse\"> </a><a name=\"hcSHINNYHRSNOutreachQuestionnaireResponse\"> </a><div style=\"display: inline-block; background-color: #d9e0e7; padding: 6px; margin: 4px; border: 1px solid #8da1b4; border-radius: 5px; line-height: 60%\"><p style=\"margin-bottom: 0px\">Last updated: 2024-02-23 00:00:00+0000</p><p style=\"margin-bottom: 0px\">Profile: <a href=\"http://hl7.org/fhir/uv/sdc/STU3/StructureDefinition-sdc-questionnaireresponse.html\">SDC Questionnaire Response</a></p></div><table border=\"1\" cellpadding=\"0\" cellspacing=\"0\" style=\"border: 1px #F0F0F0 solid; font-size: 11px; font-family: verdana; vertical-align: top;\"><tr style=\"border: 2px #F0F0F0 solid; font-size: 11px; font-family: verdana; vertical-align: top\"><th style=\"vertical-align: top; text-align : var(--ig-left,left); background-color: white; border: 1px #F0F0F0 solid; padding:0px 4px 0px 4px; padding-top: 3px; padding-bottom: 3px\" class=\"hierarchy\"><a href=\"https://hl7.org/fhir/R4/formats.html#table\" title=\"The linkID for the item\">LinkID</a></th><th style=\"vertical-align: top; text-align : var(--ig-left,left); background-color: white; border: 1px #F0F0F0 solid; padding:0px 4px 0px 4px; padding-top: 3px; padding-bottom: 3px\" class=\"hierarchy\"><a href=\"https://hl7.org/fhir/R4/formats.html#table\" title=\"Text for the item\">Text</a></th><th style=\"vertical-align: top; text-align : var(--ig-left,left); background-color: white; border: 1px #F0F0F0 solid; padding:0px 4px 0px 4px; padding-top: 3px; padding-bottom: 3px\" class=\"hierarchy\"><a href=\"https://hl7.org/fhir/R4/formats.html#table\" title=\"Minimum and Maximum # of times the item can appear in the instance\">Definition</a></th><th style=\"vertical-align: top; text-align : var(--ig-left,left); background-color: white; border: 1px #F0F0F0 solid; padding:0px 4px 0px 4px; padding-top: 3px; padding-bottom: 3px\" class=\"hierarchy\"><a href=\"https://hl7.org/fhir/R4/formats.html#table\" title=\"The type of the item\">Answer</a><span style=\"float: right\"><a href=\"https://hl7.org/fhir/R4/formats.html#table\" title=\"Legend for this format\"><img src=\"data:image/png;base64,\" alt=\"doco\" style=\"background-color: inherit\"/></a></span></th></tr><tr style=\"border: 1px #F0F0F0 solid; padding:0px; vertical-align: top; background-color: white\"><td style=\"vertical-align: top; text-align : var(--ig-left,left); background-color: white; border: 1px #F0F0F0 solid; padding:0px 4px 0px 4px; white-space: nowrap; background-image: url(tbl_bck1.png)\" class=\"hierarchy\"><img src=\"tbl_spacer.png\" alt=\".\" style=\"background-color: inherit\" class=\"hierarchy\"/><img src=\"icon_q_root.gif\" alt=\".\" style=\"background-color: white; background-color: inherit\" title=\"QuestionnaireResponseRoot\" class=\"hierarchy\"/> SHINNYHRSNOutreachQuestionnaireResponse</td><td style=\"vertical-align: top; text-align : var(--ig-left,left); background-color: white; border: 1px #F0F0F0 solid; padding:0px 4px 0px 4px\" class=\"hierarchy\"></td><td style=\"vertical-align: top; text-align : var(--ig-left,left); background-color: white; border: 1px #F0F0F0 solid; padding:0px 4px 0px 4px\" class=\"hierarchy\"></td><td style=\"vertical-align: top; text-align : var(--ig-left,left); background-color: white; border: 1px #F0F0F0 solid; padding:0px 4px 0px 4px\" class=\"hierarchy\">Questionnaire:<a href=\"Questionnaire-SHINNYHRSNOutreachQuestionnaire.html\">Questionnaire[http://shinny.org/us/ny/hrsn/Questionnaire/SHINNYHRSNOutreachQuestionnaire|1.6.3]</a></td></tr>\r\n<tr style=\"border: 1px #F0F0F0 solid; padding:0px; vertical-align: top; background-color: #F7F7F7\"><td style=\"vertical-align: top; text-align : var(--ig-left,left); background-color: #F7F7F7; border: 1px #F0F0F0 solid; padding:0px 4px 0px 4px; white-space: nowrap; background-image: url(tbl_bck01.png)\" class=\"hierarchy\"><img src=\"tbl_spacer.png\" alt=\".\" style=\"background-color: inherit\" class=\"hierarchy\"/><img src=\"tbl_vjoin_end.png\" alt=\".\" style=\"background-color: inherit\" class=\"hierarchy\"/><img src=\"icon-q-group.png\" alt=\".\" style=\"background-color: #F7F7F7; background-color: inherit\" title=\"Group\" class=\"hierarchy\"/> hrsn-outreach-questionnaire</td><td style=\"vertical-align: top; text-align : var(--ig-left,left); background-color: #F7F7F7; border: 1px #F0F0F0 solid; padding:0px 4px 0px 4px\" class=\"hierarchy\">Captures the service provider outreach date.</td><td style=\"vertical-align: top; text-align : var(--ig-left,left); background-color: #F7F7F7; border: 1px #F0F0F0 solid; padding:0px 4px 0px 4px\" class=\"hierarchy\"/><td style=\"vertical-align: top; text-align : var(--ig-left,left); background-color: #F7F7F7; border: 1px #F0F0F0 solid; padding:0px 4px 0px 4px\" class=\"hierarchy\"/></tr>\r\n<tr style=\"border: 1px #F0F0F0 solid; padding:0px; vertical-align: top; background-color: white\"><td style=\"vertical-align: top; text-align : var(--ig-left,left); background-color: white; border: 1px #F0F0F0 solid; padding:0px 4px 0px 4px; white-space: nowrap; background-image: url(tbl_bck001.png)\" class=\"hierarchy\"><img src=\"tbl_spacer.png\" alt=\".\" style=\"background-color: inherit\" class=\"hierarchy\"/><img src=\"tbl_blank.png\" alt=\".\" style=\"background-color: inherit\" class=\"hierarchy\"/><img src=\"tbl_vjoin_end.png\" alt=\".\" style=\"background-color: inherit\" class=\"hierarchy\"/><img src=\"icon-q-group.png\" alt=\".\" style=\"background-color: white; background-color: inherit\" title=\"Group\" class=\"hierarchy\"/> hrsn-outreach</td><td style=\"vertical-align: top; text-align : var(--ig-left,left); background-color: white; border: 1px #F0F0F0 solid; padding:0px 4px 0px 4px\" class=\"hierarchy\">Questions regarding the HRSN outreach.</td><td style=\"vertical-align: top; text-align : var(--ig-left,left); background-color: white; border: 1px #F0F0F0 solid; padding:0px 4px 0px 4px\" class=\"hierarchy\"/><td style=\"vertical-align: top; text-align : var(--ig-left,left); background-color: white; border: 1px #F0F0F0 solid; padding:0px 4px 0px 4px\" class=\"hierarchy\"/></tr>\r\n<tr style=\"border: 1px #F0F0F0 solid; padding:0px; vertical-align: top; background-color: #F7F7F7\"><td style=\"vertical-align: top; text-align : var(--ig-left,left); background-color: #F7F7F7; border: 1px #F0F0F0 solid; padding:0px 4px 0px 4px; white-space: nowrap; background-image: url(tbl_bck0000.png)\" class=\"hierarchy\"><img src=\"tbl_spacer.png\" alt=\".\" style=\"background-color: inherit\" class=\"hierarchy\"/><img src=\"tbl_blank.png\" alt=\".\" style=\"background-color: inherit\" class=\"hierarchy\"/><img src=\"tbl_blank.png\" alt=\".\" style=\"background-color: inherit\" class=\"hierarchy\"/><img src=\"tbl_vjoin_end.png\" alt=\".\" style=\"background-color: inherit\" class=\"hierarchy\"/><img src=\"icon-q-string.png\" alt=\".\" style=\"background-color: #F7F7F7; background-color: inherit\" title=\"Item\" class=\"hierarchy\"/> hrsn-referral-outreach-date</td><td style=\"vertical-align: top; text-align : var(--ig-left,left); background-color: #F7F7F7; border: 1px #F0F0F0 solid; padding:0px 4px 0px 4px\" class=\"hierarchy\">The date/time the HRSN Service Provider conducted outreach to patient, based on accepted referral.</td><td style=\"vertical-align: top; text-align : var(--ig-left,left); background-color: #F7F7F7; border: 1px #F0F0F0 solid; padding:0px 4px 0px 4px\" class=\"hierarchy\"/><td style=\"vertical-align: top; text-align : var(--ig-left,left); background-color: #F7F7F7; border: 1px #F0F0F0 solid; padding:0px 4px 0px 4px\" class=\"hierarchy\">2024-02-20</td></tr>\r\n<tr><td colspan=\"4\" class=\"hierarchy\"><br/><a href=\"https://hl7.org/fhir/R4/formats.html#table\" title=\"Legend for this format\"><img src=\"data:image/png;base64,\" alt=\"doco\" style=\"background-color: inherit\"/> Documentation for this format</a></td></tr></table></div>"
                },
                "questionnaire": "http://shinny.org/us/ny/hrsn/Questionnaire/SHINNYHRSNOutreachQuestionnaire",
                "status": "completed",
                "subject": {
                    "reference": "Patient/PatientExample"
                },
                "encounter": {
                    "reference": "Encounter/EncounterExample"
                },
                "authored": "2024-01-01T00:00:00Z",
                "item": [
                    {
                        "linkId": "hrsn-outreach-questionnaire",
                        "text": "Captures the service provider outreach date.",
                        "item": [
                            {
                                "linkId": "hrsn-outreach",
                                "text": "Questions regarding the HRSN outreach.",
                                "item": [
                                    {
                                        "linkId": "hrsn-referral-outreach-date",
                                        "text": "The date/time the HRSN Service Provider conducted outreach to patient, based on accepted referral.",
                                        "answer": [
                                            {
                                                "valueDate": "2024-02-20"
                                            }
                                        ]
                                    }
                                ]
                            }
                        ]
                    }
                ]
            },
            "request": {
                "method": "POST",
                "url": "http://shinny.org/us/ny/hrsn/QuestionnaireResponse/SHINNYHRSNOutreachQuestionnaireResponse"
            }
        },
        {
            "fullUrl": "http://shinny.org/us/ny/hrsn/QuestionnaireResponse/SHINNYDisablityQuestionnaireResponse",
            "resource": {
                "resourceType": "QuestionnaireResponse",
                "id": "SHINNYDisablityQuestionnaireResponse",
                "meta": {
                    "lastUpdated": "2024-02-23T00:00:00Z",
                    "profile": [
                        "http://hl7.org/fhir/uv/sdc/StructureDefinition/sdc-questionnaireresponse"
                    ]
                },
                "text": {
                    "status": "generated",
                    "div": "<div xmlns=\"http://www.w3.org/1999/xhtml\"><a name=\"QuestionnaireResponse_SHINNYDisablityQuestionnaireResponse\"> </a><p class=\"res-header-id\"><b>Generated Narrative: QuestionnaireResponse SHINNYDisablityQuestionnaireResponse</b></p><a name=\"SHINNYDisablityQuestionnaireResponse\"> </a><a name=\"hcSHINNYDisablityQuestionnaireResponse\"> </a><div style=\"display: inline-block; background-color: #d9e0e7; padding: 6px; margin: 4px; border: 1px solid #8da1b4; border-radius: 5px; line-height: 60%\"><p style=\"margin-bottom: 0px\">Last updated: 2024-02-23 00:00:00+0000</p><p style=\"margin-bottom: 0px\">Profile: <a href=\"http://hl7.org/fhir/uv/sdc/STU3/StructureDefinition-sdc-questionnaireresponse.html\">SDC Questionnaire Response</a></p></div><table border=\"1\" cellpadding=\"0\" cellspacing=\"0\" style=\"border: 1px #F0F0F0 solid; font-size: 11px; font-family: verdana; vertical-align: top;\"><tr style=\"border: 2px #F0F0F0 solid; font-size: 11px; font-family: verdana; vertical-align: top\"><th style=\"vertical-align: top; text-align : var(--ig-left,left); background-color: white; border: 1px #F0F0F0 solid; padding:0px 4px 0px 4px; padding-top: 3px; padding-bottom: 3px\" class=\"hierarchy\"><a href=\"https://hl7.org/fhir/R4/formats.html#table\" title=\"The linkID for the item\">LinkID</a></th><th style=\"vertical-align: top; text-align : var(--ig-left,left); background-color: white; border: 1px #F0F0F0 solid; padding:0px 4px 0px 4px; padding-top: 3px; padding-bottom: 3px\" class=\"hierarchy\"><a href=\"https://hl7.org/fhir/R4/formats.html#table\" title=\"Text for the item\">Text</a></th><th style=\"vertical-align: top; text-align : var(--ig-left,left); background-color: white; border: 1px #F0F0F0 solid; padding:0px 4px 0px 4px; padding-top: 3px; padding-bottom: 3px\" class=\"hierarchy\"><a href=\"https://hl7.org/fhir/R4/formats.html#table\" title=\"Minimum and Maximum # of times the item can appear in the instance\">Definition</a></th><th style=\"vertical-align: top; text-align : var(--ig-left,left); background-color: white; border: 1px #F0F0F0 solid; padding:0px 4px 0px 4px; padding-top: 3px; padding-bottom: 3px\" class=\"hierarchy\"><a href=\"https://hl7.org/fhir/R4/formats.html#table\" title=\"The type of the item\">Answer</a><span style=\"float: right\"><a href=\"https://hl7.org/fhir/R4/formats.html#table\" title=\"Legend for this format\"><img src=\"data:image/png;base64,\" alt=\"doco\" style=\"background-color: inherit\"/></a></span></th></tr><tr style=\"border: 1px #F0F0F0 solid; padding:0px; vertical-align: top; background-color: white\"><td style=\"vertical-align: top; text-align : var(--ig-left,left); background-color: white; border: 1px #F0F0F0 solid; padding:0px 4px 0px 4px; white-space: nowrap; background-image: url(tbl_bck1.png)\" class=\"hierarchy\"><img src=\"tbl_spacer.png\" alt=\".\" style=\"background-color: inherit\" class=\"hierarchy\"/><img src=\"icon_q_root.gif\" alt=\".\" style=\"background-color: white; background-color: inherit\" title=\"QuestionnaireResponseRoot\" class=\"hierarchy\"/> SHINNYDisablityQuestionnaireResponse</td><td style=\"vertical-align: top; text-align : var(--ig-left,left); background-color: white; border: 1px #F0F0F0 solid; padding:0px 4px 0px 4px\" class=\"hierarchy\"></td><td style=\"vertical-align: top; text-align : var(--ig-left,left); background-color: white; border: 1px #F0F0F0 solid; padding:0px 4px 0px 4px\" class=\"hierarchy\"></td><td style=\"vertical-align: top; text-align : var(--ig-left,left); background-color: white; border: 1px #F0F0F0 solid; padding:0px 4px 0px 4px\" class=\"hierarchy\">Questionnaire:<a href=\"Questionnaire-SHINNYDisablityQuestionnaire.html\">Questionnaire[http://shinny.org/us/ny/hrsn/Questionnaire/SHINNYDisablityQuestionnaire|1.6.3]</a></td></tr>\r\n<tr style=\"border: 1px #F0F0F0 solid; padding:0px; vertical-align: top; background-color: #F7F7F7\"><td style=\"vertical-align: top; text-align : var(--ig-left,left); background-color: #F7F7F7; border: 1px #F0F0F0 solid; padding:0px 4px 0px 4px; white-space: nowrap; background-image: url(tbl_bck01.png)\" class=\"hierarchy\"><img src=\"tbl_spacer.png\" alt=\".\" style=\"background-color: inherit\" class=\"hierarchy\"/><img src=\"tbl_vjoin_end.png\" alt=\".\" style=\"background-color: inherit\" class=\"hierarchy\"/><img src=\"icon-q-group.png\" alt=\".\" style=\"background-color: #F7F7F7; background-color: inherit\" title=\"Group\" class=\"hierarchy\"/> disability-questionnaire</td><td style=\"vertical-align: top; text-align : var(--ig-left,left); background-color: #F7F7F7; border: 1px #F0F0F0 solid; padding:0px 4px 0px 4px\" class=\"hierarchy\">Captures responses about a patient's disability mobility.</td><td style=\"vertical-align: top; text-align : var(--ig-left,left); background-color: #F7F7F7; border: 1px #F0F0F0 solid; padding:0px 4px 0px 4px\" class=\"hierarchy\"/><td style=\"vertical-align: top; text-align : var(--ig-left,left); background-color: #F7F7F7; border: 1px #F0F0F0 solid; padding:0px 4px 0px 4px\" class=\"hierarchy\"/></tr>\r\n<tr style=\"border: 1px #F0F0F0 solid; padding:0px; vertical-align: top; background-color: white\"><td style=\"vertical-align: top; text-align : var(--ig-left,left); background-color: white; border: 1px #F0F0F0 solid; padding:0px 4px 0px 4px; white-space: nowrap; background-image: url(tbl_bck001.png)\" class=\"hierarchy\"><img src=\"tbl_spacer.png\" alt=\".\" style=\"background-color: inherit\" class=\"hierarchy\"/><img src=\"tbl_blank.png\" alt=\".\" style=\"background-color: inherit\" class=\"hierarchy\"/><img src=\"tbl_vjoin_end.png\" alt=\".\" style=\"background-color: inherit\" class=\"hierarchy\"/><img src=\"icon-q-group.png\" alt=\".\" style=\"background-color: white; background-color: inherit\" title=\"Group\" class=\"hierarchy\"/> disability-questions</td><td style=\"vertical-align: top; text-align : var(--ig-left,left); background-color: white; border: 1px #F0F0F0 solid; padding:0px 4px 0px 4px\" class=\"hierarchy\">Captures a collection of screening responses about a patient's mobility and self-care.</td><td style=\"vertical-align: top; text-align : var(--ig-left,left); background-color: white; border: 1px #F0F0F0 solid; padding:0px 4px 0px 4px\" class=\"hierarchy\"/><td style=\"vertical-align: top; text-align : var(--ig-left,left); background-color: white; border: 1px #F0F0F0 solid; padding:0px 4px 0px 4px\" class=\"hierarchy\"/></tr>\r\n<tr style=\"border: 1px #F0F0F0 solid; padding:0px; vertical-align: top; background-color: #F7F7F7\"><td style=\"vertical-align: top; text-align : var(--ig-left,left); background-color: #F7F7F7; border: 1px #F0F0F0 solid; padding:0px 4px 0px 4px; white-space: nowrap; background-image: url(tbl_bck0000.png)\" class=\"hierarchy\"><img src=\"tbl_spacer.png\" alt=\".\" style=\"background-color: inherit\" class=\"hierarchy\"/><img src=\"tbl_blank.png\" alt=\".\" style=\"background-color: inherit\" class=\"hierarchy\"/><img src=\"tbl_blank.png\" alt=\".\" style=\"background-color: inherit\" class=\"hierarchy\"/><img src=\"tbl_vjoin_end.png\" alt=\".\" style=\"background-color: inherit\" class=\"hierarchy\"/><img src=\"icon-q-string.png\" alt=\".\" style=\"background-color: #F7F7F7; background-color: inherit\" title=\"Item\" class=\"hierarchy\"/> 69859-7</td><td style=\"vertical-align: top; text-align : var(--ig-left,left); background-color: #F7F7F7; border: 1px #F0F0F0 solid; padding:0px 4px 0px 4px\" class=\"hierarchy\">Do you have serious difficulty walking or climbing stairs? (5 years old or older)</td><td style=\"vertical-align: top; text-align : var(--ig-left,left); background-color: #F7F7F7; border: 1px #F0F0F0 solid; padding:0px 4px 0px 4px\" class=\"hierarchy\"/><td style=\"vertical-align: top; text-align : var(--ig-left,left); background-color: #F7F7F7; border: 1px #F0F0F0 solid; padding:0px 4px 0px 4px\" class=\"hierarchy\"><span><span><a href=\"https://loinc.org/LA32-8\">LOINC LA32-8</a>: No</span></span></td></tr>\r\n<tr><td colspan=\"4\" class=\"hierarchy\"><br/><a href=\"https://hl7.org/fhir/R4/formats.html#table\" title=\"Legend for this format\"><img src=\"data:image/png;base64,\" alt=\"doco\" style=\"background-color: inherit\"/> Documentation for this format</a></td></tr></table></div>"
                },
                "questionnaire": "http://shinny.org/us/ny/hrsn/Questionnaire/SHINNYDisablityQuestionnaire",
                "status": "completed",
                "subject": {
                    "reference": "Patient/PatientExample"
                },
                "encounter": {
                    "reference": "Encounter/EncounterExample"
                },
                "authored": "2024-01-01T00:00:00Z",
                "item": [
                    {
                        "linkId": "disability-questionnaire",
                        "text": "Captures responses about a patient's disability mobility.",
                        "item": [
                            {
                                "linkId": "disability-questions",
                                "text": "Captures a collection of screening responses about a patient's mobility and self-care.",
                                "item": [
                                    {
                                        "linkId": "69859-7",
                                        "text": "Do you have serious difficulty walking or climbing stairs? (5 years old or older)",
                                        "answer": [
                                            {
                                                "valueCoding": {
                                                    "system": "http://loinc.org",
                                                    "code": "LA32-8",
                                                    "display": "No"
                                                }
                                            }
                                        ]
                                    }
                                ]
                            }
                        ]
                    }
                ]
            },
            "request": {
                "method": "POST",
                "url": "http://shinny.org/us/ny/hrsn/QuestionnaireResponse/SHINNYDisablityQuestionnaireResponse"
            }
        }
    ]
}