{
  "resourceType" : "Bundle",
  "id" : "PatientNegativeConsent",
  "meta" : {
    "lastUpdated" : "2024-02-23T00:00:00Z",
    "profile" : ["http://shinny.org/us/ny/hrsn/StructureDefinition/SHINNYBundleProfile"]
  },
  "type" : "transaction",
  "timestamp" : "2024-02-23T00:00:00Z",
  "entry" : [{
    "fullUrl" : "http://shinny.org/us/ny/hrsn/Patient/PatientExample",
    "resource" : {
      "resourceType" : "Patient",
      "id" : "PatientExample",
      "meta" : {
        "lastUpdated" : "2024-02-23T00:00:00.00Z",
        "profile" : ["http://shinny.org/us/ny/hrsn/StructureDefinition/shinny-patient"]
      },
      "language" : "en",
      "text" : {
        "status" : "generated",
        "div" : "<div xmlns=\"http://www.w3.org/1999/xhtml\" xml:lang=\"en\" lang=\"en\"><a name=\"Patient_PatientExample\"> </a><p class=\"res-header-id\"><b>Generated Narrative: Patient PatientExample</b></p><a name=\"PatientExample\"> </a><a name=\"hcPatientExample\"> </a><a name=\"PatientExample-en-US\"> </a><div style=\"display: inline-block; background-color: #d9e0e7; padding: 6px; margin: 4px; border: 1px solid #8da1b4; border-radius: 5px; line-height: 60%\"><p style=\"margin-bottom: 0px\">Last updated: 2024-02-23 00:00:00+0000; Language: en</p><p style=\"margin-bottom: 0px\">Profile: <a href=\"StructureDefinition-shinny-patient.html\">SHINNY Patient Profile</a></p></div><p style=\"border: 1px #661aff solid; background-color: #e6e6ff; padding: 10px;\">Jon Doe  Male, DoB: 1981-07-16 ( Medical record number)</p><hr/><table class=\"grid\"><tr><td style=\"background-color: #f3f5da\" title=\"Other Ids (see the one above)\">Other Ids:</td><td colspan=\"3\"><ul><li>Patient Medicaid number/AA12345C</li><li>Social Security Number/999-34-2964</li></ul></td></tr><tr><td style=\"background-color: #f3f5da\" title=\"Ways to contact the Patient\">Contact Detail</td><td colspan=\"3\"><ul><li>ph: 555-120-6047(Home)</li><li>115 Broadway Apt2 New York, NY 10032</li></ul></td></tr><tr><td style=\"background-color: #f3f5da\" title=\"Language spoken\">Language:</td><td colspan=\"3\"><span title=\"Codes:{urn:ietf:bcp:47 en}\">English</span> (preferred)</td></tr><tr><td style=\"background-color: #f3f5da\" title=\"Nominated Contact: Mother\">Mother:</td><td colspan=\"3\"><ul><li>Joyce Doe </li><li><a href=\"tel:+1234567890\">+1234567890</a></li></ul></td></tr><tr><td style=\"background-color: #f3f5da\" title=\"Concepts classifying the person into a named category of humans sharing common history, traits, geographical origin or nationality.  The ethnicity codes used to represent these concepts are based upon the [CDC ethnicity and Ethnicity Code Set Version 1.0](http://www.cdc.gov/phin/resources/vocabulary/index.html) which includes over 900 concepts for representing race and ethnicity of which 43 reference ethnicity.  The ethnicity concepts are grouped by and pre-mapped to the 2 OMB ethnicity categories: - Hispanic or Latino - Not Hispanic or Latino.\">US Core Ethnicity Extension:</td><td colspan=\"3\"><ul><li>ombCategory: <a href=\"http://hl7.org/fhir/us/core/STU3.1.1/CodeSystem-cdcrec.html#cdcrec-2135-2\">Race &amp; Ethnicity - CDC 2135-2</a>: Hispanic or Latino</li><li>text: Hispanic or Latino</li></ul></td></tr><tr><td style=\"background-color: #f3f5da\" title=\"A code classifying the person's sex assigned at birth  as specified by the [Office of the National Coordinator for Health IT (ONC)](https://www.healthit.gov/newsroom/about-onc). This extension aligns with the C-CDA Birth Sex Observation (LOINC 76689-9).\"><a href=\"http://hl7.org/fhir/us/core/STU3.1.1/StructureDefinition-us-core-birthsex.html\">US Core Birth Sex Extension</a></td><td colspan=\"3\">M</td></tr><tr><td style=\"background-color: #f3f5da\" title=\"Concepts classifying the person into a named category of humans sharing common history, traits, geographical origin or nationality.  The race codes used to represent these concepts are based upon the [CDC Race and Ethnicity Code Set Version 1.0](http://www.cdc.gov/phin/resources/vocabulary/index.html) which includes over 900 concepts for representing race and ethnicity of which 921 reference race.  The race concepts are grouped by and pre-mapped to the 5 OMB race categories:\n\n - American Indian or Alaska Native\n - Asian\n - Black or African American\n - Native Hawaiian or Other Pacific Islander\n - White.\">US Core Race Extension:</td><td colspan=\"3\"><ul><li>ombCategory: <a href=\"http://hl7.org/fhir/us/core/STU3.1.1/CodeSystem-cdcrec.html#cdcrec-2028-9\">Race &amp; Ethnicity - CDC 2028-9</a>: Asian</li><li>ombCategory: <a href=\"http://hl7.org/fhir/us/core/STU3.1.1/CodeSystem-cdcrec.html#cdcrec-1002-5\">Race &amp; Ethnicity - CDC 1002-5</a>: American Indian or Alaska Native</li><li>detailed: <a href=\"http://hl7.org/fhir/us/core/STU3.1.1/CodeSystem-cdcrec.html#cdcrec-1010-8\">Race &amp; Ethnicity - CDC 1010-8</a>: Apache</li><li>text: Asian, American Indian, Apache</li></ul></td></tr><tr><td style=\"background-color: #f3f5da\" title=\"This extension represents an individual's sense of being a man, woman, boy, girl, nonbinary, or something else, ascertained by asking them what that identity is.\"><a href=\"StructureDefinition-shinny-gender-identity.html\">SHINNYGenderIdentityExtension</a></td><td colspan=\"3\"><span title=\"Codes:{http://snomed.info/sct 446151000124109}\">Identifies as male gender (finding)</span></td></tr><tr><td style=\"background-color: #f3f5da\" title=\"Personal Pronouns\"><a href=\"StructureDefinition-shinny-personal-pronouns.html\">SHINNY Personal Pronouns</a></td><td colspan=\"3\"><span title=\"Codes:{http://loinc.org LA29518-0}\">he/him/his/his/himself</span></td></tr></table></div>"
      },
      "extension" : [{
        "extension" : [{
          "url" : "ombCategory",
          "valueCoding" : {
            "system" : "urn:oid:2.16.840.1.113883.6.238",
            "code" : "2028-9",
            "display" : "Asian"
          }
        },
        {
          "url" : "ombCategory",
          "valueCoding" : {
            "system" : "urn:oid:2.16.840.1.113883.6.238",
            "code" : "1002-5",
            "display" : "American Indian or Alaska Native"
          }
        },
        {
          "url" : "detailed",
          "valueCoding" : {
            "system" : "urn:oid:2.16.840.1.113883.6.238",
            "code" : "1010-8",
            "display" : "Apache"
          }
        },
        {
          "url" : "text",
          "valueString" : "Asian, American Indian, Apache"
        }],
        "url" : "http://hl7.org/fhir/us/core/StructureDefinition/us-core-race"
      },
      {
        "extension" : [{
          "url" : "ombCategory",
          "valueCoding" : {
            "system" : "urn:oid:2.16.840.1.113883.6.238",
            "code" : "2135-2",
            "display" : "Hispanic or Latino"
          }
        },
        {
          "url" : "text",
          "valueString" : "Hispanic or Latino"
        }],
        "url" : "http://hl7.org/fhir/us/core/StructureDefinition/us-core-ethnicity"
      },
      {
        "url" : "http://hl7.org/fhir/us/core/StructureDefinition/us-core-birthsex",
        "valueCode" : "M"
      },
      {
        "url" : "http://shinny.org/us/ny/hrsn/StructureDefinition/shinny-personal-pronouns",
        "valueCodeableConcept" : {
          "coding" : [{
            "system" : "http://loinc.org",
            "code" : "LA29518-0",
            "display" : "he/him/his/his/himself"
          }]
        }
      },
      {
        "url" : "http://shinny.org/us/ny/hrsn/StructureDefinition/shinny-gender-identity",
        "valueCodeableConcept" : {
          "coding" : [{
            "system" : "http://snomed.info/sct",
            "code" : "446151000124109",
            "display" : "Identifies as male gender (finding)"
          }]
        }
      }],
      "identifier" : [{
        "type" : {
          "coding" : [{
            "system" : "http://terminology.hl7.org/CodeSystem/v2-0203",
            "code" : "MR"
          }]
        },
        "system" : "http://www.scn.gov/facility/CUMC",
        "value" : "11223344",
        "assigner" : {
          "reference" : "Organization/OrganizationExampleOther-SCN1"
        }
      },
      {
        "type" : {
          "coding" : [{
            "system" : "http://terminology.hl7.org/CodeSystem/v2-0203",
            "code" : "MA"
          }]
        },
        "system" : "http://www.medicaid.gov/",
        "value" : "AA12345C"
      },
      {
        "type" : {
          "coding" : [{
            "system" : "http://terminology.hl7.org/CodeSystem/v2-0203",
            "code" : "SS",
            "display" : "Social Security Number"
          }],
          "text" : "Social Security Number"
        },
        "system" : "http://www.ssa.gov/",
        "value" : "999-34-2964"
      }],
      "name" : [{
        "extension" : [{
          "url" : "http://shinny.org/us/ny/hrsn/StructureDefinition/middle-name",
          "valueString" : "Bob"
        }],
        "family" : "Doe",
        "given" : ["Jon"],
        "prefix" : ["Mr.",
        "Dr.",
        "PhD",
        "CCNA"],
        "suffix" : ["Jr.",
        "III"]
      }],
      "telecom" : [{
        "system" : "phone",
        "value" : "555-120-6047",
        "use" : "home"
      }],
      "gender" : "male",
      "birthDate" : "1981-07-16",
      "address" : [{
        "text" : "115 Broadway Apt2 New York, NY 10032",
        "line" : ["115 Broadway Apt2"],
        "city" : "New York",
        "district" : "MANHATTAN",
        "state" : "NY",
        "postalCode" : "10032"
      }],
      "contact" : [{
        "relationship" : [{
          "coding" : [{
            "system" : "http://terminology.hl7.org/CodeSystem/v2-0063",
            "code" : "MTH",
            "display" : "Mother"
          }]
        }],
        "name" : {
          "family" : "Doe",
          "given" : ["Joyce"]
        },
        "telecom" : [{
          "system" : "phone",
          "value" : "+1234567890"
        }]
      }],
      "communication" : [{
        "language" : {
          "coding" : [{
            "system" : "urn:ietf:bcp:47",
            "code" : "en"
          }]
        },
        "preferred" : true
      }]
    },
    "request" : {
      "method" : "POST",
      "url" : "http://shinny.org/us/ny/hrsn/Patient/PatientExample"
    }
  },
  {
    "fullUrl" : "http://shinny.org/us/ny/hrsn/Encounter/EncounterExample",
    "resource" : {
      "resourceType" : "Encounter",
      "id" : "EncounterExample",
      "meta" : {
        "lastUpdated" : "2024-02-23T00:00:00Z",
        "profile" : ["http://shinny.org/us/ny/hrsn/StructureDefinition/shinny-encounter"]
      },
      "text" : {
        "status" : "generated",
        "div" : "<div xmlns=\"http://www.w3.org/1999/xhtml\"><a name=\"Encounter_EncounterExample\"> </a><p class=\"res-header-id\"><b>Generated Narrative: Encounter EncounterExample</b></p><a name=\"EncounterExample\"> </a><a name=\"hcEncounterExample\"> </a><a name=\"EncounterExample-en-US\"> </a><div style=\"display: inline-block; background-color: #d9e0e7; padding: 6px; margin: 4px; border: 1px solid #8da1b4; border-radius: 5px; line-height: 60%\"><p style=\"margin-bottom: 0px\">Last updated: 2024-02-23 00:00:00+0000</p><p style=\"margin-bottom: 0px\">Profile: <a href=\"StructureDefinition-shinny-encounter.html\">SHINNY Encounter Profile</a></p></div><p><b>status</b>: Finished</p><p><b>class</b>: <a href=\"http://terminology.hl7.org/6.0.2/CodeSystem-v3-ActCode.html#v3-ActCode-FLD\">ActCode FLD</a>: field</p><p><b>type</b>: <span title=\"Codes:{http://snomed.info/sct 405672008}\">Direct questioning (procedure)</span></p><p><b>subject</b>: <a href=\"Patient-PatientExample.html\">Jon Doe  Male, DoB: 1981-07-16 ( Medical record number)</a></p><p><b>period</b>: 2024-02-23 00:00:00+0000 --&gt; 2024-02-23 01:00:00+0000</p><h3>Locations</h3><table class=\"grid\"><tr><td style=\"display: none\">-</td><td><b>Location</b></td></tr><tr><td style=\"display: none\">*</td><td><a href=\"Location-LocationExample-SCN.html\">Location downtown location</a></td></tr></table></div>"
      },
      "status" : "finished",
      "class" : {
        "system" : "http://terminology.hl7.org/CodeSystem/v3-ActCode",
        "code" : "FLD"
      },
      "type" : [{
        "coding" : [{
          "system" : "http://snomed.info/sct",
          "code" : "405672008",
          "display" : "Direct questioning (procedure)"
        }],
        "text" : "Direct questioning (procedure)"
      }],
      "subject" : {
        "reference" : "Patient/PatientExample"
      },
      "period" : {
        "start" : "2024-02-23T00:00:00Z",
        "end" : "2024-02-23T01:00:00Z"
      },
      "location" : [{
        "location" : {
          "reference" : "Location/LocationExample-SCN"
        }
      }]
    },
    "request" : {
      "method" : "POST",
      "url" : "http://shinny.org/us/ny/hrsn/Encounter/EncounterExample"
    }
  },
  {
    "fullUrl" : "http://shinny.org/us/ny/hrsn/Organization/OrganizationExampleOther-SCN1",
    "resource" : {
      "resourceType" : "Organization",
      "id" : "OrganizationExampleOther-SCN1",
      "meta" : {
        "lastUpdated" : "2024-02-23T00:00:00Z",
        "profile" : ["http://shinny.org/us/ny/hrsn/StructureDefinition/shin-ny-organization"]
      },
      "text" : {
        "status" : "generated",
        "div" : "<div xmlns=\"http://www.w3.org/1999/xhtml\"><a name=\"Organization_OrganizationExampleOther-SCN1\"> </a><p class=\"res-header-id\"><b>Generated Narrative: Organization OrganizationExampleOther-SCN1</b></p><a name=\"OrganizationExampleOther-SCN1\"> </a><a name=\"hcOrganizationExampleOther-SCN1\"> </a><a name=\"OrganizationExampleOther-SCN1-en-US\"> </a><div style=\"display: inline-block; background-color: #d9e0e7; padding: 6px; margin: 4px; border: 1px solid #8da1b4; border-radius: 5px; line-height: 60%\"><p style=\"margin-bottom: 0px\">Last updated: 2024-02-23 00:00:00+0000</p><p style=\"margin-bottom: 0px\">Profile: <a href=\"StructureDefinition-shin-ny-organization.html\">SHINNY Organization Profile</a></p></div><p><b>identifier</b>: Care Ridge/SCNExample, NPI/1234567890</p><p><b>active</b>: true</p><p><b>type</b>: <span title=\"Codes:{https://hl7.org/fhir/R4/codesystem-organization-type.html other}\">Other</span></p><p><b>name</b>: Care Ridge SCN</p><p><b>address</b>: 111 Care Ridge St, Plainview, NY 11803</p></div>"
      },
      "identifier" : [{
        "type" : {
          "coding" : [{
            "display" : "Care Ridge"
          }]
        },
        "system" : "http://www.scn.ny.gov/",
        "value" : "SCNExample"
      },
      {
        "type" : {
          "coding" : [{
            "system" : "http://hl7.org/fhir/sid/us-npi",
            "code" : "NPI"
          }]
        },
        "system" : "http://hl7.org/fhir/sid/us-npi",
        "value" : "1234567890"
      }],
      "active" : true,
      "type" : [{
        "coding" : [{
          "system" : "https://hl7.org/fhir/R4/codesystem-organization-type.html",
          "code" : "other",
          "display" : "Other"
        }]
      }],
      "name" : "Care Ridge SCN",
      "address" : [{
        "text" : "111 Care Ridge St, Plainview, NY 11803",
        "line" : ["111 Care Ridge St"],
        "city" : "Plainview",
        "district" : "Nassau County",
        "state" : "NY",
        "postalCode" : "11803"
      }]
    },
    "request" : {
      "method" : "POST",
      "url" : "http://shinny.org/us/ny/hrsn/Organization/OrganizationExampleOther-SCN1"
    }
  },
  {
    "fullUrl" : "http://shinny.org/us/ny/hrsn/Consent/ConsentExampleNegative",
    "resource" : {
      "resourceType" : "Consent",
      "id" : "ConsentExampleNegative",
      "meta" : {
        "lastUpdated" : "2024-02-23T00:00:00Z",
        "profile" : ["http://shinny.org/us/ny/hrsn/StructureDefinition/shinny-Consent"]
      },
      "text" : {
        "status" : "generated",
        "div" : "<div xmlns=\"http://www.w3.org/1999/xhtml\"><a name=\"Consent_ConsentExampleNegative\"> </a><p class=\"res-header-id\"><b>Generated Narrative: Consent ConsentExampleNegative</b></p><a name=\"ConsentExampleNegative\"> </a><a name=\"hcConsentExampleNegative\"> </a><a name=\"ConsentExampleNegative-en-US\"> </a><div style=\"display: inline-block; background-color: #d9e0e7; padding: 6px; margin: 4px; border: 1px solid #8da1b4; border-radius: 5px; line-height: 60%\"><p style=\"margin-bottom: 0px\">Last updated: 2024-02-23 00:00:00+0000</p><p style=\"margin-bottom: 0px\">Profile: <a href=\"StructureDefinition-shinny-Consent.html\">SHINNY Consent Profile</a></p></div><p><b>status</b>: Rejected</p><p><b>scope</b>: <span title=\"Codes:{http://terminology.hl7.org/CodeSystem/consentscope treatment}\">treatment</span></p><p><b>category</b>: <span title=\"Codes:{http://loinc.org 59284-0}\">Consent Document</span>, <span title=\"Codes:{http://terminology.hl7.org/CodeSystem/v3-ActCode IDSCL}\">information disclosure</span></p><p><b>patient</b>: <a href=\"Patient-PatientExample.html\">Jon Doe  Male, DoB: 1981-07-16 ( Medical record number)</a></p><p><b>dateTime</b>: 2024-02-23 00:00:00+0000</p><p><b>organization</b>: <a href=\"Organization-OrganizationExampleOther-SCN1.html\">Organization Care Ridge SCN</a></p><p><b>source</b>: </p><h3>Policies</h3><table class=\"grid\"><tr><td style=\"display: none\">-</td><td><b>Authority</b></td></tr><tr><td style=\"display: none\">*</td><td>urn:uuid:d1eaac1a-22b7-4bb6-9c62-cc95d6fdf1a5</td></tr></table><h3>Provisions</h3><table class=\"grid\"><tr><td style=\"display: none\">-</td><td><b>Type</b></td></tr><tr><td style=\"display: none\">*</td><td>Opt Out</td></tr></table></div>"
      },
      "status" : "rejected",
      "scope" : {
        "coding" : [{
          "system" : "http://terminology.hl7.org/CodeSystem/consentscope",
          "code" : "treatment",
          "display" : "Treatment"
        }],
        "text" : "treatment"
      },
      "category" : [{
        "coding" : [{
          "system" : "http://loinc.org",
          "code" : "59284-0",
          "display" : "Consent Document"
        }]
      },
      {
        "coding" : [{
          "system" : "http://terminology.hl7.org/CodeSystem/v3-ActCode",
          "code" : "IDSCL"
        }]
      }],
      "patient" : {
        "reference" : "Patient/PatientExample"
      },
      "dateTime" : "2024-02-23T00:00:00Z",
      "organization" : [{
        "reference" : "Organization/OrganizationExampleOther-SCN1"
      }],
      "sourceAttachment" : {
        "contentType" : "application/pdf",
        "language" : "en"
      },
      "policy" : [{
        "authority" : "urn:uuid:d1eaac1a-22b7-4bb6-9c62-cc95d6fdf1a5"
      }],
      "provision" : {
        "type" : "deny"
      }
    },
    "request" : {
      "method" : "POST",
      "url" : "http://shinny.org/us/ny/hrsn/Consent/ConsentExampleNegative"
    }
  },
  {
    "fullUrl" : "http://shinny.org/us/ny/hrsn/Location/LocationExample-SCN",
    "resource" : {
      "resourceType" : "Location",
      "id" : "LocationExample-SCN",
      "meta" : {
        "lastUpdated" : "2024-02-23T00:00:00Z",
        "profile" : ["http://hl7.org/fhir/us/sdoh-clinicalcare/StructureDefinition/SDOHCC-Location"]
      },
      "text" : {
        "status" : "generated",
        "div" : "<div xmlns=\"http://www.w3.org/1999/xhtml\"><a name=\"Location_LocationExample-SCN\"> </a><p class=\"res-header-id\"><b>Generated Narrative: Location LocationExample-SCN</b></p><a name=\"LocationExample-SCN\"> </a><a name=\"hcLocationExample-SCN\"> </a><a name=\"LocationExample-SCN-en-US\"> </a><div style=\"display: inline-block; background-color: #d9e0e7; padding: 6px; margin: 4px; border: 1px solid #8da1b4; border-radius: 5px; line-height: 60%\"><p style=\"margin-bottom: 0px\">Last updated: 2024-02-23 00:00:00+0000</p><p style=\"margin-bottom: 0px\">Profile: <a href=\"http://hl7.org/fhir/us/sdoh-clinicalcare/STU2.2/StructureDefinition-SDOHCC-Location.html\">SDOHCC Location</a></p></div><p><b>status</b>: Active</p><p><b>name</b>: downtown location</p><p><b>type</b>: <span title=\"Codes:{http://terminology.hl7.org/CodeSystem/v3-RoleCode CSC}\">community service center</span></p><p><b>address</b>: 115 Broadway Suite #1601 New York NY 10006 </p><p><b>physicalType</b>: <span title=\"Codes:{http://terminology.hl7.org/CodeSystem/location-physical-type bu}\">Building</span></p><p><b>managingOrganization</b>: <a href=\"Organization-OrganizationExampleOther-SCN1.html\">Organization Care Ridge SCN</a></p></div>"
      },
      "status" : "active",
      "name" : "downtown location",
      "type" : [{
        "coding" : [{
          "system" : "http://terminology.hl7.org/CodeSystem/v3-RoleCode",
          "code" : "CSC"
        }]
      }],
      "address" : {
        "id" : "SCNAddressLocation",
        "type" : "physical",
        "line" : ["115 Broadway Suite #1601"],
        "city" : "New York",
        "district" : "MANHATTAN",
        "state" : "NY",
        "postalCode" : "10006"
      },
      "physicalType" : {
        "coding" : [{
          "system" : "http://terminology.hl7.org/CodeSystem/location-physical-type",
          "code" : "bu"
        }]
      },
      "managingOrganization" : {
        "reference" : "Organization/OrganizationExampleOther-SCN1"
      }
    },
    "request" : {
      "method" : "POST",
      "url" : "http://shinny.org/us/ny/hrsn/Location/LocationExample-SCN"
    }
  }]
}