{
  "resourceType" : "Bundle",
  "id" : "AHCHRSNScreeningResponseExample",
  "meta" : {
    "lastUpdated" : "2024-02-23T00:00:00Z",
    "profile" : ["http://hyds.org/us/ny/hrsn/StructureDefinition/SHINNYBundleProfile"]
  },
  "type" : "transaction",
  "timestamp" : "2024-02-03T00:00:00Z",
  "entry" : [{
    "fullUrl" : "http://shinny.org/us/ny/hrsn/Patient/PatientExample",
    "resource" : {
      "resourceType" : "Patient",
      "id" : "PatientExample",
      "meta" : {
        "lastUpdated" : "2024-02-23T00:00:00.00Z",
        "profile" : ["http://test.shinny.org/us/ny/hrsn/StructureDefinition/shinny-patient"]
      },
      "language" : "en",
      "text" : {
        "status" : "generated",
        "div" : "<div xmlns=\"http://www.w3.org/1999/xhtml\" xml:lang=\"en\" lang=\"en\"><a name=\"Patient_PatientExample\"> </a><p class=\"res-header-id\"><b>Generated Narrative: Patient PatientExample</b></p><a name=\"PatientExample\"> </a><a name=\"hcPatientExample\"> </a><a name=\"PatientExample-en-US\"> </a><div style=\"display: inline-block; background-color: #d9e0e7; padding: 6px; margin: 4px; border: 1px solid #8da1b4; border-radius: 5px; line-height: 60%\"><p style=\"margin-bottom: 0px\">Last updated: 2024-02-23 00:00:00+0000; Language: en</p><p style=\"margin-bottom: 0px\">Profile: <a href=\"StructureDefinition-shinny-patient.html\">SHINNY Patient Profile</a></p></div><p style=\"border: 1px #661aff solid; background-color: #e6e6ff; padding: 10px;\">Jon Doe  Male, DoB: 1981-07-16 ( Medical record number)</p><hr/><table class=\"grid\"><tr><td style=\"background-color: #f3f5da\" title=\"Other Ids (see the one above)\">Other Ids:</td><td colspan=\"3\"><ul><li>Patient Medicaid number/AA12345C</li><li>Social Security Number/999-34-2964</li></ul></td></tr><tr><td style=\"background-color: #f3f5da\" title=\"Ways to contact the Patient\">Contact Detail</td><td colspan=\"3\"><ul><li>ph: 555-120-6047(Home)</li><li>115 Broadway Apt2 New York, NY 10032</li></ul></td></tr><tr><td style=\"background-color: #f3f5da\" title=\"Language spoken\">Language:</td><td colspan=\"3\"><span title=\"Codes:{urn:ietf:bcp:47 en}\">English</span> (preferred)</td></tr><tr><td style=\"background-color: #f3f5da\" title=\"Nominated Contact: Mother\">Mother:</td><td colspan=\"3\"><ul><li>Joyce Doe </li><li><a href=\"tel:+1234567890\">+1234567890</a></li></ul></td></tr><tr><td style=\"background-color: #f3f5da\" title=\"Personal Pronouns\"><a href=\"StructureDefinition-shinny-personal-pronouns.html\">SHINNY Personal Pronouns</a></td><td colspan=\"3\"><span title=\"Codes:{http://loinc.org LA29518-0}\">he/him/his/his/himself</span></td></tr><tr><td style=\"background-color: #f3f5da\" title=\"This extension represents an individual's sense of being a man, woman, boy, girl, nonbinary, or something else, ascertained by asking them what that identity is.\"><a href=\"StructureDefinition-shinny-gender-identity.html\">SHINNYGenderIdentityExtension</a></td><td colspan=\"3\"><span title=\"Codes:{http://snomed.info/sct 446151000124109}\">Identifies as male gender (finding)</span></td></tr><tr><td style=\"background-color: #f3f5da\" title=\"Concepts classifying the person into a named category of humans sharing common history, traits, geographical origin or nationality.  The ethnicity codes used to represent these concepts are based upon the [CDC ethnicity and Ethnicity Code Set Version 1.0](http://www.cdc.gov/phin/resources/vocabulary/index.html) which includes over 900 concepts for representing race and ethnicity of which 43 reference ethnicity.  The ethnicity concepts are grouped by and pre-mapped to the 2 OMB ethnicity categories: - Hispanic or Latino - Not Hispanic or Latino.\">US Core Ethnicity Extension:</td><td colspan=\"3\"><ul><li>ombCategory: <a href=\"http://hl7.org/fhir/us/core/STU3.1.1/CodeSystem-cdcrec.html#cdcrec-2135-2\">Race &amp; Ethnicity - CDC 2135-2</a>: Hispanic or Latino</li><li>text: Hispanic or Latino</li></ul></td></tr><tr><td style=\"background-color: #f3f5da\" title=\"A code classifying the person's sex assigned at birth  as specified by the [Office of the National Coordinator for Health IT (ONC)](https://www.healthit.gov/newsroom/about-onc). This extension aligns with the C-CDA Birth Sex Observation (LOINC 76689-9).\"><a href=\"http://hl7.org/fhir/us/core/STU3.1.1/StructureDefinition-us-core-birthsex.html\">US Core Birth Sex Extension</a></td><td colspan=\"3\">M</td></tr><tr><td style=\"background-color: #f3f5da\" title=\"Concepts classifying the person into a named category of humans sharing common history, traits, geographical origin or nationality.  The race codes used to represent these concepts are based upon the [CDC Race and Ethnicity Code Set Version 1.0](http://www.cdc.gov/phin/resources/vocabulary/index.html) which includes over 900 concepts for representing race and ethnicity of which 921 reference race.  The race concepts are grouped by and pre-mapped to the 5 OMB race categories:\n\n - American Indian or Alaska Native\n - Asian\n - Black or African American\n - Native Hawaiian or Other Pacific Islander\n - White.\">US Core Race Extension:</td><td colspan=\"3\"><ul><li>ombCategory: <a href=\"http://hl7.org/fhir/us/core/STU3.1.1/CodeSystem-cdcrec.html#cdcrec-2028-9\">Race &amp; Ethnicity - CDC 2028-9</a>: Asian</li><li>text: Asian</li></ul></td></tr></table></div>"
      },
      "extension" : [{
        "extension" : [{
          "url" : "ombCategory",
          "valueCoding" : {
            "system" : "urn:oid:2.16.840.1.113883.6.238",
            "code" : "2028-9",
            "display" : "Asian"
          }
        },
        {
          "url" : "text",
          "valueString" : "Asian"
        }],
        "url" : "http://hl7.org/fhir/us/core/StructureDefinition/us-core-race"
      },
      {
        "extension" : [{
          "url" : "ombCategory",
          "valueCoding" : {
            "system" : "urn:oid:2.16.840.1.113883.6.238",
            "code" : "2135-2",
            "display" : "Hispanic or Latino"
          }
        },
        {
          "url" : "text",
          "valueString" : "Hispanic or Latino"
        }],
        "url" : "http://hl7.org/fhir/us/core/StructureDefinition/us-core-ethnicity"
      },
      {
        "url" : "http://hl7.org/fhir/us/core/StructureDefinition/us-core-birthsex",
        "valueCode" : "M"
      },
      {
        "url" : "http://test.shinny.org/us/ny/hrsn/StructureDefinition/shinny-personal-pronouns",
        "valueCodeableConcept" : {
          "coding" : [{
            "system" : "http://loinc.org",
            "code" : "LA29518-0",
            "display" : "he/him/his/his/himself"
          }]
        }
      },
      {
        "url" : "http://test.shinny.org/us/ny/hrsn/StructureDefinition/shinny-gender-identity",
        "valueCodeableConcept" : {
          "coding" : [{
            "system" : "http://snomed.info/sct",
            "code" : "446151000124109",
            "display" : "Identifies as male gender (finding)"
          }]
        }
      }],
      "identifier" : [{
        "type" : {
          "coding" : [{
            "system" : "http://terminology.hl7.org/CodeSystem/v2-0203",
            "code" : "MR"
          }]
        },
        "system" : "http://www.scn.gov/facility/CUMC",
        "value" : "11223344",
        "assigner" : {
          "reference" : "Organization/OrganizationExampleOther-SCN1"
        }
      },
      {
        "type" : {
          "coding" : [{
            "system" : "http://terminology.hl7.org/CodeSystem/v2-0203",
            "code" : "MA"
          }]
        },
        "system" : "http://www.medicaid.gov/",
        "value" : "AA12345C"
      },
      {
        "type" : {
          "coding" : [{
            "system" : "http://terminology.hl7.org/CodeSystem/v2-0203",
            "code" : "SS",
            "display" : "Social Security Number"
          }],
          "text" : "Social Security Number"
        },
        "system" : "http://www.ssa.gov/",
        "value" : "999-34-2964"
      }],
      "name" : [{
        "extension" : [{
          "url" : "http://test.shinny.org/us/ny/hrsn/StructureDefinition/middle-name",
          "valueString" : "Bob"
        }],
        "family" : "Doe",
        "given" : ["Jon"],
        "prefix" : ["Mr.",
        "Dr.",
        "PhD",
        "CCNA"],
        "suffix" : ["Jr.",
        "III"]
      }],
      "telecom" : [{
        "system" : "phone",
        "value" : "555-120-6047",
        "use" : "home"
      }],
      "gender" : "male",
      "birthDate" : "1981-07-16",
      "address" : [{
        "text" : "115 Broadway Apt2 New York, NY 10032",
        "line" : ["115 Broadway Apt2"],
        "city" : "New York",
        "district" : "MANHATTAN",
        "state" : "NY",
        "postalCode" : "10032"
      }],
      "contact" : [{
        "relationship" : [{
          "coding" : [{
            "system" : "http://terminology.hl7.org/CodeSystem/v2-0063",
            "code" : "MTH",
            "display" : "Mother"
          }]
        }],
        "name" : {
          "family" : "Doe",
          "given" : ["Joyce"]
        },
        "telecom" : [{
          "system" : "phone",
          "value" : "+1234567890"
        }]
      }],
      "communication" : [{
        "language" : {
          "coding" : [{
            "system" : "urn:ietf:bcp:47",
            "code" : "en"
          }]
        },
        "preferred" : true
      }]
    },
    "request" : {
      "method" : "POST",
      "url" : "http://shinny.org/us/ny/hrsn/Patient/PatientExample"
    }
  },
  {
    "fullUrl" : "http://shinny.org/us/ny/hrsn/Observation/SexualOrientationExample",
    "resource" : {
      "resourceType" : "Observation",
      "id" : "SexualOrientationExample",
      "meta" : {
        "lastUpdated" : "2024-02-23T00:00:00Z",
        "profile" : ["http://test.shinny.org/us/ny/hrsn/StructureDefinition/shinny-observation-sexual-orientation"]
      },
      "text" : {
        "status" : "generated",
        "div" : "<div xmlns=\"http://www.w3.org/1999/xhtml\"><a name=\"Observation_SexualOrientationExample\"> </a><p class=\"res-header-id\"><b>Generated Narrative: Observation SexualOrientationExample</b></p><a name=\"SexualOrientationExample\"> </a><a name=\"hcSexualOrientationExample\"> </a><a name=\"SexualOrientationExample-en-US\"> </a><div style=\"display: inline-block; background-color: #d9e0e7; padding: 6px; margin: 4px; border: 1px solid #8da1b4; border-radius: 5px; line-height: 60%\"><p style=\"margin-bottom: 0px\">Last updated: 2024-02-23 00:00:00+0000</p><p style=\"margin-bottom: 0px\">Profile: <a href=\"StructureDefinition-shinny-observation-sexual-orientation.html\">SHINNYObservationSexualOrientationProfile</a></p></div><p><b>status</b>: Final</p><p><b>code</b>: <span title=\"Codes:{http://loinc.org 76690-7}\">Sexual orientation</span></p><p><b>subject</b>: <a href=\"Patient-PatientExample.html\">Jon Doe  Male, DoB: 1981-07-16 ( Medical record number)</a></p><p><b>value</b>: <span title=\"Codes:{http://terminology.hl7.org/CodeSystem/v3-NullFlavor UNK}\">Unknown</span></p></div>"
      },
      "status" : "final",
      "code" : {
        "coding" : [{
          "system" : "http://loinc.org",
          "code" : "76690-7",
          "display" : "Sexual orientation"
        }]
      },
      "subject" : {
        "reference" : "Patient/PatientExample"
      },
      "valueCodeableConcept" : {
        "coding" : [{
          "system" : "http://terminology.hl7.org/CodeSystem/v3-NullFlavor",
          "code" : "UNK",
          "display" : "Unknown"
        }]
      }
    },
    "request" : {
      "method" : "POST",
      "url" : "http://shinny.org/us/ny/hrsn/Observation/SexualOrientationExample"
    }
  },
  {
    "fullUrl" : "http://shinny.org/us/ny/hrsn/Organization/OrganizationExampleOther-SCN1",
    "resource" : {
      "resourceType" : "Organization",
      "id" : "OrganizationExampleOther-SCN1",
      "meta" : {
        "lastUpdated" : "2024-02-23T00:00:00Z",
        "profile" : ["http://test.shinny.org/us/ny/hrsn/StructureDefinition/shin-ny-organization"]
      },
      "text" : {
        "status" : "generated",
        "div" : "<div xmlns=\"http://www.w3.org/1999/xhtml\"><a name=\"Organization_OrganizationExampleOther-SCN1\"> </a><p class=\"res-header-id\"><b>Generated Narrative: Organization OrganizationExampleOther-SCN1</b></p><a name=\"OrganizationExampleOther-SCN1\"> </a><a name=\"hcOrganizationExampleOther-SCN1\"> </a><a name=\"OrganizationExampleOther-SCN1-en-US\"> </a><div style=\"display: inline-block; background-color: #d9e0e7; padding: 6px; margin: 4px; border: 1px solid #8da1b4; border-radius: 5px; line-height: 60%\"><p style=\"margin-bottom: 0px\">Last updated: 2024-02-23 00:00:00+0000</p><p style=\"margin-bottom: 0px\">Profile: <a href=\"StructureDefinition-shin-ny-organization.html\">SHINNY Organization Profile</a></p></div><p><b>identifier</b>: Care Ridge/SCNExample, NPI/1234567890</p><p><b>active</b>: true</p><p><b>type</b>: <span title=\"Codes:{http://terminology.hl7.org/CodeSystem/organization-type other}\">Other</span></p><p><b>name</b>: Care Ridge SCN</p><p><b>address</b>: 111 Care Ridge St, Plainview, NY 11803</p></div>"
      },
      "identifier" : [{
        "type" : {
          "coding" : [{
            "display" : "Care Ridge"
          }]
        },
        "system" : "http://www.scn.ny.gov/",
        "value" : "SCNExample"
      },
      {
        "type" : {
          "coding" : [{
            "system" : "http://hl7.org/fhir/sid/us-npi",
            "code" : "NPI"
          }]
        },
        "system" : "http://hl7.org/fhir/sid/us-npi",
        "value" : "1234567890"
      }],
      "active" : true,
      "type" : [{
        "coding" : [{
          "system" : "http://terminology.hl7.org/CodeSystem/organization-type",
          "code" : "other",
          "display" : "Other"
        }]
      }],
      "name" : "Care Ridge SCN",
      "address" : [{
        "text" : "111 Care Ridge St, Plainview, NY 11803",
        "line" : ["111 Care Ridge St"],
        "city" : "Plainview",
        "district" : "Nassau County",
        "state" : "NY",
        "postalCode" : "11803"
      }]
    },
    "request" : {
      "method" : "POST",
      "url" : "http://shinny.org/us/ny/hrsn/Organization/OrganizationExampleOther-SCN1"
    }
  },
  {
    "fullUrl" : "http://shinny.org/us/ny/hrsn/Consent/ConsentExample",
    "resource" : {
      "resourceType" : "Consent",
      "id" : "ConsentExample",
      "meta" : {
        "lastUpdated" : "2024-02-23T00:00:00Z",
        "profile" : ["http://test.shinny.org/us/ny/hrsn/StructureDefinition/shinny-Consent"]
      },
      "text" : {
        "status" : "generated",
        "div" : "<div xmlns=\"http://www.w3.org/1999/xhtml\"><a name=\"Consent_ConsentExample\"> </a><p class=\"res-header-id\"><b>Generated Narrative: Consent ConsentExample</b></p><a name=\"ConsentExample\"> </a><a name=\"hcConsentExample\"> </a><a name=\"ConsentExample-en-US\"> </a><div style=\"display: inline-block; background-color: #d9e0e7; padding: 6px; margin: 4px; border: 1px solid #8da1b4; border-radius: 5px; line-height: 60%\"><p style=\"margin-bottom: 0px\">Last updated: 2024-02-23 00:00:00+0000</p><p style=\"margin-bottom: 0px\">Profile: <a href=\"StructureDefinition-shinny-Consent.html\">SHINNY Consent Profile</a></p></div><p><b>status</b>: Active</p><p><b>scope</b>: <span title=\"Codes:{http://terminology.hl7.org/CodeSystem/consentscope treatment}\">treatment</span></p><p><b>category</b>: <span title=\"Codes:{http://loinc.org 59284-0}\">Consent Document</span>, <span title=\"Codes:{http://terminology.hl7.org/CodeSystem/v3-ActCode IDSCL}\">information disclosure</span></p><p><b>patient</b>: <a href=\"Patient-PatientExample.html\">Jon Doe  Male, DoB: 1981-07-16 ( Medical record number)</a></p><p><b>dateTime</b>: 2024-02-23 00:00:00+0000</p><p><b>organization</b>: <a href=\"Organization-OrganizationExampleOther-SCN1.html\">Organization Care Ridge SCN</a></p><p><b>source</b>: </p><h3>Policies</h3><table class=\"grid\"><tr><td style=\"display: none\">-</td><td><b>Authority</b></td></tr><tr><td style=\"display: none\">*</td><td>urn:uuid:d1eaac1a-22b7-4bb6-9c62-cc95d6fdf1a5</td></tr></table><h3>Provisions</h3><table class=\"grid\"><tr><td style=\"display: none\">-</td><td><b>Type</b></td></tr><tr><td style=\"display: none\">*</td><td>Opt In</td></tr></table></div>"
      },
      "status" : "active",
      "scope" : {
        "coding" : [{
          "system" : "http://terminology.hl7.org/CodeSystem/consentscope",
          "code" : "treatment",
          "display" : "Treatment"
        }],
        "text" : "treatment"
      },
      "category" : [{
        "coding" : [{
          "system" : "http://loinc.org",
          "code" : "59284-0",
          "display" : "Consent Document"
        }]
      },
      {
        "coding" : [{
          "system" : "http://terminology.hl7.org/CodeSystem/v3-ActCode",
          "code" : "IDSCL"
        }]
      }],
      "patient" : {
        "reference" : "Patient/PatientExample"
      },
      "dateTime" : "2024-02-23T00:00:00Z",
      "organization" : [{
        "reference" : "Organization/OrganizationExampleOther-SCN1"
      }],
      "sourceAttachment" : {
        "contentType" : "application/pdf",
        "language" : "en"
      },
      "policy" : [{
        "authority" : "urn:uuid:d1eaac1a-22b7-4bb6-9c62-cc95d6fdf1a5"
      }],
      "provision" : {
        "type" : "permit"
      }
    },
    "request" : {
      "method" : "POST",
      "url" : "http://shinny.org/us/ny/hrsn/Consent/ConsentExample"
    }
  },
  {
    "fullUrl" : "http://shinny.org/us/ny/hrsn/Encounter/EncounterExample",
    "resource" : {
      "resourceType" : "Encounter",
      "id" : "EncounterExample",
      "meta" : {
        "lastUpdated" : "2024-02-23T00:00:00Z",
        "profile" : ["http://test.shinny.org/us/ny/hrsn/StructureDefinition/shinny-encounter"]
      },
      "text" : {
        "status" : "generated",
        "div" : "<div xmlns=\"http://www.w3.org/1999/xhtml\"><a name=\"Encounter_EncounterExample\"> </a><p class=\"res-header-id\"><b>Generated Narrative: Encounter EncounterExample</b></p><a name=\"EncounterExample\"> </a><a name=\"hcEncounterExample\"> </a><a name=\"EncounterExample-en-US\"> </a><div style=\"display: inline-block; background-color: #d9e0e7; padding: 6px; margin: 4px; border: 1px solid #8da1b4; border-radius: 5px; line-height: 60%\"><p style=\"margin-bottom: 0px\">Last updated: 2024-02-23 00:00:00+0000</p><p style=\"margin-bottom: 0px\">Profile: <a href=\"StructureDefinition-shinny-encounter.html\">SHINNY Encounter Profile</a></p></div><p><b>status</b>: Finished</p><p><b>class</b>: <a href=\"http://terminology.hl7.org/6.0.2/CodeSystem-v3-ActCode.html#v3-ActCode-FLD\">ActCode FLD</a>: field</p><p><b>type</b>: <span title=\"Codes:{http://snomed.info/sct 405672008}\">Direct questioning (procedure)</span></p><p><b>subject</b>: <a href=\"Patient-PatientExample.html\">Jon Doe  Male, DoB: 1981-07-16 ( Medical record number)</a></p><p><b>period</b>: 2024-02-23 00:00:00+0000 --&gt; 2024-02-23 01:00:00+0000</p><h3>Locations</h3><table class=\"grid\"><tr><td style=\"display: none\">-</td><td><b>Location</b></td></tr><tr><td style=\"display: none\">*</td><td><a href=\"Location-LocationExample-SCN.html\">Location downtown location</a></td></tr></table></div>"
      },
      "status" : "finished",
      "class" : {
        "system" : "http://terminology.hl7.org/CodeSystem/v3-ActCode",
        "code" : "FLD"
      },
      "type" : [{
        "coding" : [{
          "system" : "http://snomed.info/sct",
          "code" : "405672008",
          "display" : "Direct questioning (procedure)"
        }],
        "text" : "Direct questioning (procedure)"
      }],
      "subject" : {
        "reference" : "Patient/PatientExample"
      },
      "period" : {
        "start" : "2024-02-23T00:00:00Z",
        "end" : "2024-02-23T01:00:00Z"
      },
      "location" : [{
        "location" : {
          "reference" : "Location/LocationExample-SCN"
        }
      }]
    },
    "request" : {
      "method" : "POST",
      "url" : "http://shinny.org/us/ny/hrsn/Encounter/EncounterExample"
    }
  },
  {
    "fullUrl" : "http://shinny.org/us/ny/hrsn/Location/LocationExample-SCN",
    "resource" : {
      "resourceType" : "Location",
      "id" : "LocationExample-SCN",
      "meta" : {
        "lastUpdated" : "2024-02-23T00:00:00Z"
      },
      "text" : {
        "status" : "generated",
        "div" : "<div xmlns=\"http://www.w3.org/1999/xhtml\"><a name=\"Location_LocationExample-SCN\"> </a><p class=\"res-header-id\"><b>Generated Narrative: Location LocationExample-SCN</b></p><a name=\"LocationExample-SCN\"> </a><a name=\"hcLocationExample-SCN\"> </a><a name=\"LocationExample-SCN-en-US\"> </a><div style=\"display: inline-block; background-color: #d9e0e7; padding: 6px; margin: 4px; border: 1px solid #8da1b4; border-radius: 5px; line-height: 60%\"><p style=\"margin-bottom: 0px\">Last updated: 2024-02-23 00:00:00+0000</p></div><p><b>status</b>: Active</p><p><b>name</b>: downtown location</p><p><b>type</b>: <span title=\"Codes:{http://terminology.hl7.org/CodeSystem/v3-RoleCode CSC}\">community service center</span></p><p><b>address</b>: 115 Broadway Suite #1601 New York NY 10006 </p><p><b>physicalType</b>: <span title=\"Codes:{http://terminology.hl7.org/CodeSystem/location-physical-type bu}\">Building</span></p><p><b>managingOrganization</b>: <a href=\"Organization-OrganizationExampleOther-SCN1.html\">Organization Care Ridge SCN</a></p></div>"
      },
      "status" : "active",
      "name" : "downtown location",
      "type" : [{
        "coding" : [{
          "system" : "http://terminology.hl7.org/CodeSystem/v3-RoleCode",
          "code" : "CSC"
        }]
      }],
      "address" : {
        "id" : "SCNAddressLocation",
        "type" : "physical",
        "line" : ["115 Broadway Suite #1601"],
        "city" : "New York",
        "district" : "MANHATTAN",
        "state" : "NY",
        "postalCode" : "10006"
      },
      "physicalType" : {
        "coding" : [{
          "system" : "http://terminology.hl7.org/CodeSystem/location-physical-type",
          "code" : "bu"
        }]
      },
      "managingOrganization" : {
        "reference" : "Organization/OrganizationExampleOther-SCN1"
      }
    },
    "request" : {
      "method" : "POST",
      "url" : "http://shinny.org/us/ny/hrsn/Location/LocationExample-SCN"
    }
  },
  {
    "fullUrl" : "http://shinny.org/us/ny/hrsn/Observation/HousingInstability71802-3",
    "resource" : {
      "resourceType" : "Observation",
      "id" : "HousingInstability71802-3",
      "meta" : {
        "lastUpdated" : "2024-02-23T00:00:00Z",
        "profile" : ["http://test.shinny.org/us/ny/hrsn/StructureDefinition/shinny-observation-screening-response"]
      },
      "language" : "en",
      "text" : {
        "status" : "generated",
        "div" : "<div xmlns=\"http://www.w3.org/1999/xhtml\" xml:lang=\"en\" lang=\"en\"><a name=\"Observation_HousingInstability71802-3\"> </a><p class=\"res-header-id\"><b>Generated Narrative: Observation HousingInstability71802-3</b></p><a name=\"HousingInstability71802-3\"> </a><a name=\"hcHousingInstability71802-3\"> </a><a name=\"HousingInstability71802-3-en-US\"> </a><div style=\"display: inline-block; background-color: #d9e0e7; padding: 6px; margin: 4px; border: 1px solid #8da1b4; border-radius: 5px; line-height: 60%\"><p style=\"margin-bottom: 0px\">Last updated: 2024-02-23 00:00:00+0000; Language: en</p><p style=\"margin-bottom: 0px\">Profile: <a href=\"StructureDefinition-shinny-observation-screening-response.html\">SHINNY Observation Screening Response Profile</a></p></div><p><b>status</b>: Final</p><p><b>category</b>: <span title=\"Codes:{http://hl7.org/fhir/us/sdoh-clinicalcare/CodeSystem/SDOHCC-CodeSystemTemporaryCodes housing-instability}\">Housing Instability</span>, <span title=\"Codes:{http://terminology.hl7.org/CodeSystem/observation-category social-history}\">Social History</span>, <span title=\"Codes:{http://terminology.hl7.org/CodeSystem/observation-category survey}\">Survey</span></p><p><b>code</b>: <span title=\"Codes:{http://loinc.org 71802-3}\">What is your living situation today?</span></p><p><b>subject</b>: <a href=\"Patient-PatientExample.html\">Jon Doe  Male, DoB: 1981-07-16 ( Medical record number)</a></p><p><b>effective</b>: 2023-07-12 16:08:00+0000</p><p><b>issued</b>: 2023-07-12 16:08:00+0000</p><p><b>value</b>: <span title=\"Codes:{http://loinc.org LA31993-1}\">I have a steady place to live</span></p></div>"
      },
      "status" : "final",
      "category" : [{
        "coding" : [{
          "system" : "http://hl7.org/fhir/us/sdoh-clinicalcare/CodeSystem/SDOHCC-CodeSystemTemporaryCodes",
          "code" : "housing-instability",
          "display" : "Housing Instability"
        }]
      },
      {
        "coding" : [{
          "system" : "http://terminology.hl7.org/CodeSystem/observation-category",
          "code" : "social-history"
        }]
      },
      {
        "coding" : [{
          "system" : "http://terminology.hl7.org/CodeSystem/observation-category",
          "code" : "survey"
        }]
      }],
      "code" : {
        "coding" : [{
          "system" : "http://loinc.org",
          "code" : "71802-3",
          "display" : "Housing status"
        }],
        "text" : "What is your living situation today?"
      },
      "subject" : {
        "reference" : "Patient/PatientExample"
      },
      "effectiveDateTime" : "2023-07-12T16:08:00.000Z",
      "issued" : "2023-07-12T16:08:00.000Z",
      "valueCodeableConcept" : {
        "coding" : [{
          "system" : "http://loinc.org",
          "code" : "LA31993-1",
          "display" : "I have a steady place to live"
        }]
      }
    },
    "request" : {
      "method" : "POST",
      "url" : "http://shinny.org/us/ny/hrsn/Observation/HousingInstability71802-3"
    }
  },
  {
    "fullUrl" : "http://shinny.org/us/ny/hrsn/Observation/InadequateHousing96778-6",
    "resource" : {
      "resourceType" : "Observation",
      "id" : "InadequateHousing96778-6",
      "meta" : {
        "lastUpdated" : "2024-02-23T00:00:00Z",
        "profile" : ["http://test.shinny.org/us/ny/hrsn/StructureDefinition/shinny-observation-screening-response"]
      },
      "language" : "en",
      "text" : {
        "status" : "generated",
        "div" : "<div xmlns=\"http://www.w3.org/1999/xhtml\" xml:lang=\"en\" lang=\"en\"><a name=\"Observation_InadequateHousing96778-6\"> </a><p class=\"res-header-id\"><b>Generated Narrative: Observation InadequateHousing96778-6</b></p><a name=\"InadequateHousing96778-6\"> </a><a name=\"hcInadequateHousing96778-6\"> </a><a name=\"InadequateHousing96778-6-en-US\"> </a><div style=\"display: inline-block; background-color: #d9e0e7; padding: 6px; margin: 4px; border: 1px solid #8da1b4; border-radius: 5px; line-height: 60%\"><p style=\"margin-bottom: 0px\">Last updated: 2024-02-23 00:00:00+0000; Language: en</p><p style=\"margin-bottom: 0px\">Profile: <a href=\"StructureDefinition-shinny-observation-screening-response.html\">SHINNY Observation Screening Response Profile</a></p></div><p><b>status</b>: Final</p><p><b>category</b>: <span title=\"Codes:{http://hl7.org/fhir/us/sdoh-clinicalcare/CodeSystem/SDOHCC-CodeSystemTemporaryCodes inadequate-housing}\">Inadequate Housing</span>, <span title=\"Codes:{http://terminology.hl7.org/CodeSystem/observation-category social-history}\">Social History</span>, <span title=\"Codes:{http://terminology.hl7.org/CodeSystem/observation-category survey}\">Survey</span></p><p><b>code</b>: <span title=\"Codes:{http://loinc.org 96778-6}\">Think about the place you live. Do you have problems with any of the following?</span></p><p><b>subject</b>: <a href=\"Patient-PatientExample.html\">Jon Doe  Male, DoB: 1981-07-16 ( Medical record number)</a></p><p><b>effective</b>: 2023-07-12 16:08:00+0000</p><p><b>issued</b>: 2023-07-12 16:08:00+0000</p><p><b>value</b>: <span title=\"Codes:{http://loinc.org LA28580-1}\">Mold</span></p><p><b>interpretation</b>: <span title=\"Codes:{http://terminology.hl7.org/CodeSystem/v3-ObservationInterpretation POS}\">Positive</span></p></div>"
      },
      "status" : "final",
      "category" : [{
        "coding" : [{
          "system" : "http://hl7.org/fhir/us/sdoh-clinicalcare/CodeSystem/SDOHCC-CodeSystemTemporaryCodes",
          "code" : "inadequate-housing",
          "display" : "Inadequate Housing"
        }]
      },
      {
        "coding" : [{
          "system" : "http://terminology.hl7.org/CodeSystem/observation-category",
          "code" : "social-history"
        }]
      },
      {
        "coding" : [{
          "system" : "http://terminology.hl7.org/CodeSystem/observation-category",
          "code" : "survey"
        }]
      }],
      "code" : {
        "coding" : [{
          "system" : "http://loinc.org",
          "code" : "96778-6",
          "display" : "Problems with place where you live"
        }],
        "text" : "Think about the place you live. Do you have problems with any of the following?"
      },
      "subject" : {
        "reference" : "Patient/PatientExample"
      },
      "effectiveDateTime" : "2023-07-12T16:08:00.000Z",
      "issued" : "2023-07-12T16:08:00.000Z",
      "valueCodeableConcept" : {
        "coding" : [{
          "system" : "http://loinc.org",
          "code" : "LA28580-1",
          "display" : "Mold"
        }],
        "text" : "Mold"
      },
      "interpretation" : [{
        "coding" : [{
          "system" : "http://terminology.hl7.org/CodeSystem/v3-ObservationInterpretation",
          "code" : "POS",
          "display" : "Positive"
        }]
      }]
    },
    "request" : {
      "method" : "POST",
      "url" : "http://shinny.org/us/ny/hrsn/Observation/InadequateHousing96778-6"
    }
  },
  {
    "fullUrl" : "http://shinny.org/us/ny/hrsn/Observation/FoodInsecurity88122-7",
    "resource" : {
      "resourceType" : "Observation",
      "id" : "FoodInsecurity88122-7",
      "meta" : {
        "lastUpdated" : "2024-02-23T00:00:00Z",
        "profile" : ["http://test.shinny.org/us/ny/hrsn/StructureDefinition/shinny-observation-screening-response"]
      },
      "language" : "en",
      "text" : {
        "status" : "generated",
        "div" : "<div xmlns=\"http://www.w3.org/1999/xhtml\" xml:lang=\"en\" lang=\"en\"><a name=\"Observation_FoodInsecurity88122-7\"> </a><p class=\"res-header-id\"><b>Generated Narrative: Observation FoodInsecurity88122-7</b></p><a name=\"FoodInsecurity88122-7\"> </a><a name=\"hcFoodInsecurity88122-7\"> </a><a name=\"FoodInsecurity88122-7-en-US\"> </a><div style=\"display: inline-block; background-color: #d9e0e7; padding: 6px; margin: 4px; border: 1px solid #8da1b4; border-radius: 5px; line-height: 60%\"><p style=\"margin-bottom: 0px\">Last updated: 2024-02-23 00:00:00+0000; Language: en</p><p style=\"margin-bottom: 0px\">Profile: <a href=\"StructureDefinition-shinny-observation-screening-response.html\">SHINNY Observation Screening Response Profile</a></p></div><p><b>status</b>: Final</p><p><b>category</b>: <span title=\"Codes:{http://hl7.org/fhir/us/sdoh-clinicalcare/CodeSystem/SDOHCC-CodeSystemTemporaryCodes food-insecurity}\">Food Insecurity</span>, <span title=\"Codes:{http://terminology.hl7.org/CodeSystem/observation-category social-history}\">Social History</span>, <span title=\"Codes:{http://terminology.hl7.org/CodeSystem/observation-category survey}\">Survey</span></p><p><b>code</b>: <span title=\"Codes:{http://loinc.org 88122-7}\">Within the past 12 months, you worried that your food would run out before you got money to buy more.</span></p><p><b>subject</b>: <a href=\"Patient-PatientExample.html\">Jon Doe  Male, DoB: 1981-07-16 ( Medical record number)</a></p><p><b>effective</b>: 2023-07-12 16:08:00+0000</p><p><b>issued</b>: 2023-07-12 16:08:00+0000</p><p><b>value</b>: <span title=\"Codes:{http://loinc.org LA28397-0}\">Often true</span></p><p><b>interpretation</b>: <span title=\"Codes:{http://terminology.hl7.org/CodeSystem/v3-ObservationInterpretation POS}\">Positive</span></p></div>"
      },
      "status" : "final",
      "category" : [{
        "coding" : [{
          "system" : "http://hl7.org/fhir/us/sdoh-clinicalcare/CodeSystem/SDOHCC-CodeSystemTemporaryCodes",
          "code" : "food-insecurity",
          "display" : "Food Insecurity"
        }]
      },
      {
        "coding" : [{
          "system" : "http://terminology.hl7.org/CodeSystem/observation-category",
          "code" : "social-history"
        }]
      },
      {
        "coding" : [{
          "system" : "http://terminology.hl7.org/CodeSystem/observation-category",
          "code" : "survey"
        }]
      }],
      "code" : {
        "coding" : [{
          "system" : "http://loinc.org",
          "code" : "88122-7",
          "display" : "Within the past 12 months we worried whether our food would run out before we got money to buy more [U.S. FSS]"
        }],
        "text" : "Within the past 12 months, you worried that your food would run out before you got money to buy more."
      },
      "subject" : {
        "reference" : "Patient/PatientExample"
      },
      "effectiveDateTime" : "2023-07-12T16:08:00.000Z",
      "issued" : "2023-07-12T16:08:00.000Z",
      "valueCodeableConcept" : {
        "coding" : [{
          "system" : "http://loinc.org",
          "code" : "LA28397-0",
          "display" : "Often true"
        }],
        "text" : "Often true"
      },
      "interpretation" : [{
        "coding" : [{
          "system" : "http://terminology.hl7.org/CodeSystem/v3-ObservationInterpretation",
          "code" : "POS",
          "display" : "Positive"
        }]
      }]
    },
    "request" : {
      "method" : "POST",
      "url" : "http://shinny.org/us/ny/hrsn/Observation/FoodInsecurity88122-7"
    }
  },
  {
    "fullUrl" : "http://shinny.org/us/ny/hrsn/Observation/FoodInsecurity88123-5",
    "resource" : {
      "resourceType" : "Observation",
      "id" : "FoodInsecurity88123-5",
      "meta" : {
        "lastUpdated" : "2024-02-23T00:00:00Z",
        "profile" : ["http://test.shinny.org/us/ny/hrsn/StructureDefinition/shinny-observation-screening-response"]
      },
      "language" : "en",
      "text" : {
        "status" : "generated",
        "div" : "<div xmlns=\"http://www.w3.org/1999/xhtml\" xml:lang=\"en\" lang=\"en\"><a name=\"Observation_FoodInsecurity88123-5\"> </a><p class=\"res-header-id\"><b>Generated Narrative: Observation FoodInsecurity88123-5</b></p><a name=\"FoodInsecurity88123-5\"> </a><a name=\"hcFoodInsecurity88123-5\"> </a><a name=\"FoodInsecurity88123-5-en-US\"> </a><div style=\"display: inline-block; background-color: #d9e0e7; padding: 6px; margin: 4px; border: 1px solid #8da1b4; border-radius: 5px; line-height: 60%\"><p style=\"margin-bottom: 0px\">Last updated: 2024-02-23 00:00:00+0000; Language: en</p><p style=\"margin-bottom: 0px\">Profile: <a href=\"StructureDefinition-shinny-observation-screening-response.html\">SHINNY Observation Screening Response Profile</a></p></div><p><b>status</b>: Final</p><p><b>category</b>: <span title=\"Codes:{http://hl7.org/fhir/us/sdoh-clinicalcare/CodeSystem/SDOHCC-CodeSystemTemporaryCodes food-insecurity}\">Food Insecurity</span>, <span title=\"Codes:{http://terminology.hl7.org/CodeSystem/observation-category social-history}\">Social History</span>, <span title=\"Codes:{http://terminology.hl7.org/CodeSystem/observation-category survey}\">Survey</span></p><p><b>code</b>: <span title=\"Codes:{http://loinc.org 88123-5}\">Within the past 12 months, the food you bought just didn't last and you didn't have money to get more.</span></p><p><b>subject</b>: <a href=\"Patient-PatientExample.html\">Jon Doe  Male, DoB: 1981-07-16 ( Medical record number)</a></p><p><b>effective</b>: 2023-07-12 16:08:00+0000</p><p><b>issued</b>: 2023-07-12 16:08:00+0000</p><p><b>value</b>: <span title=\"Codes:{http://loinc.org LA28397-0}\">Often true</span></p><p><b>interpretation</b>: <span title=\"Codes:{http://terminology.hl7.org/CodeSystem/v3-ObservationInterpretation POS}\">Positive</span></p></div>"
      },
      "status" : "final",
      "category" : [{
        "coding" : [{
          "system" : "http://hl7.org/fhir/us/sdoh-clinicalcare/CodeSystem/SDOHCC-CodeSystemTemporaryCodes",
          "code" : "food-insecurity",
          "display" : "Food Insecurity"
        }]
      },
      {
        "coding" : [{
          "system" : "http://terminology.hl7.org/CodeSystem/observation-category",
          "code" : "social-history"
        }]
      },
      {
        "coding" : [{
          "system" : "http://terminology.hl7.org/CodeSystem/observation-category",
          "code" : "survey"
        }]
      }],
      "code" : {
        "coding" : [{
          "system" : "http://loinc.org",
          "code" : "88123-5",
          "display" : "Within the past 12 months the food we bought just didn't last and we didn't have money to get more [U.S. FSS]"
        }],
        "text" : "Within the past 12 months, the food you bought just didn't last and you didn't have money to get more."
      },
      "subject" : {
        "reference" : "Patient/PatientExample"
      },
      "effectiveDateTime" : "2023-07-12T16:08:00.000Z",
      "issued" : "2023-07-12T16:08:00.000Z",
      "valueCodeableConcept" : {
        "coding" : [{
          "system" : "http://loinc.org",
          "code" : "LA28397-0",
          "display" : "Often true"
        }]
      },
      "interpretation" : [{
        "coding" : [{
          "system" : "http://terminology.hl7.org/CodeSystem/v3-ObservationInterpretation",
          "code" : "POS",
          "display" : "Positive"
        }]
      }]
    },
    "request" : {
      "method" : "POST",
      "url" : "http://shinny.org/us/ny/hrsn/Observation/FoodInsecurity88123-5"
    }
  },
  {
    "fullUrl" : "http://shinny.org/us/ny/hrsn/Observation/TransportationInsecurity93030-5",
    "resource" : {
      "resourceType" : "Observation",
      "id" : "TransportationInsecurity93030-5",
      "meta" : {
        "lastUpdated" : "2024-02-23T00:00:00Z",
        "profile" : ["http://test.shinny.org/us/ny/hrsn/StructureDefinition/shinny-observation-screening-response"]
      },
      "language" : "en",
      "text" : {
        "status" : "generated",
        "div" : "<div xmlns=\"http://www.w3.org/1999/xhtml\" xml:lang=\"en\" lang=\"en\"><a name=\"Observation_TransportationInsecurity93030-5\"> </a><p class=\"res-header-id\"><b>Generated Narrative: Observation TransportationInsecurity93030-5</b></p><a name=\"TransportationInsecurity93030-5\"> </a><a name=\"hcTransportationInsecurity93030-5\"> </a><a name=\"TransportationInsecurity93030-5-en-US\"> </a><div style=\"display: inline-block; background-color: #d9e0e7; padding: 6px; margin: 4px; border: 1px solid #8da1b4; border-radius: 5px; line-height: 60%\"><p style=\"margin-bottom: 0px\">Last updated: 2024-02-23 00:00:00+0000; Language: en</p><p style=\"margin-bottom: 0px\">Profile: <a href=\"StructureDefinition-shinny-observation-screening-response.html\">SHINNY Observation Screening Response Profile</a></p></div><p><b>status</b>: Final</p><p><b>category</b>: <span title=\"Codes:{http://hl7.org/fhir/us/sdoh-clinicalcare/CodeSystem/SDOHCC-CodeSystemTemporaryCodes transportation-insecurity}\">Transportation Insecurity</span>, <span title=\"Codes:{http://terminology.hl7.org/CodeSystem/observation-category social-history}\">Social History</span>, <span title=\"Codes:{http://terminology.hl7.org/CodeSystem/observation-category survey}\">Survey</span></p><p><b>code</b>: <span title=\"Codes:{http://loinc.org 93030-5}\">In the past 12 months, has lack of reliable transportation kept you from medical appointments, meetings, work or from getting things needed for daily living?</span></p><p><b>subject</b>: <a href=\"Patient-PatientExample.html\">Jon Doe  Male, DoB: 1981-07-16 ( Medical record number)</a></p><p><b>effective</b>: 2023-07-12 16:08:00+0000</p><p><b>issued</b>: 2023-07-12 16:08:00+0000</p><p><b>value</b>: <span title=\"Codes:{http://loinc.org LA32-8}\">No</span></p></div>"
      },
      "status" : "final",
      "category" : [{
        "coding" : [{
          "system" : "http://hl7.org/fhir/us/sdoh-clinicalcare/CodeSystem/SDOHCC-CodeSystemTemporaryCodes",
          "code" : "transportation-insecurity",
          "display" : "Transportation Insecurity"
        }]
      },
      {
        "coding" : [{
          "system" : "http://terminology.hl7.org/CodeSystem/observation-category",
          "code" : "social-history"
        }]
      },
      {
        "coding" : [{
          "system" : "http://terminology.hl7.org/CodeSystem/observation-category",
          "code" : "survey"
        }]
      }],
      "code" : {
        "coding" : [{
          "system" : "http://loinc.org",
          "code" : "93030-5",
          "display" : "Has lack of transportation kept you from medical appointments, meetings, work, or from getting things needed for daily living"
        }],
        "text" : "In the past 12 months, has lack of reliable transportation kept you from medical appointments, meetings, work or from getting things needed for daily living?"
      },
      "subject" : {
        "reference" : "Patient/PatientExample"
      },
      "effectiveDateTime" : "2023-07-12T16:08:00.000Z",
      "issued" : "2023-07-12T16:08:00.000Z",
      "valueCodeableConcept" : {
        "coding" : [{
          "system" : "http://loinc.org",
          "code" : "LA32-8",
          "display" : "No"
        }]
      }
    },
    "request" : {
      "method" : "POST",
      "url" : "http://shinny.org/us/ny/hrsn/Observation/TransportationInsecurity93030-5"
    }
  },
  {
    "fullUrl" : "http://shinny.org/us/ny/hrsn/Observation/UtilityInsecurity96779-4",
    "resource" : {
      "resourceType" : "Observation",
      "id" : "UtilityInsecurity96779-4",
      "meta" : {
        "lastUpdated" : "2024-02-23T00:00:00Z",
        "profile" : ["http://test.shinny.org/us/ny/hrsn/StructureDefinition/shinny-observation-screening-response"]
      },
      "language" : "en",
      "text" : {
        "status" : "generated",
        "div" : "<div xmlns=\"http://www.w3.org/1999/xhtml\" xml:lang=\"en\" lang=\"en\"><a name=\"Observation_UtilityInsecurity96779-4\"> </a><p class=\"res-header-id\"><b>Generated Narrative: Observation UtilityInsecurity96779-4</b></p><a name=\"UtilityInsecurity96779-4\"> </a><a name=\"hcUtilityInsecurity96779-4\"> </a><a name=\"UtilityInsecurity96779-4-en-US\"> </a><div style=\"display: inline-block; background-color: #d9e0e7; padding: 6px; margin: 4px; border: 1px solid #8da1b4; border-radius: 5px; line-height: 60%\"><p style=\"margin-bottom: 0px\">Last updated: 2024-02-23 00:00:00+0000; Language: en</p><p style=\"margin-bottom: 0px\">Profile: <a href=\"StructureDefinition-shinny-observation-screening-response.html\">SHINNY Observation Screening Response Profile</a></p></div><p><b>status</b>: Final</p><p><b>category</b>: <span title=\"Codes:{http://hl7.org/fhir/us/sdoh-clinicalcare/CodeSystem/SDOHCC-CodeSystemTemporaryCodes utility-insecurity}\">Utility Insecurity</span>, <span title=\"Codes:{http://terminology.hl7.org/CodeSystem/observation-category social-history}\">Social History</span>, <span title=\"Codes:{http://terminology.hl7.org/CodeSystem/observation-category survey}\">Survey</span></p><p><b>code</b>: <span title=\"Codes:{http://loinc.org 96779-4}\">In the past 12 months has the electric, gas, oil, or water company threatened to shut off services in your home?</span></p><p><b>subject</b>: <a href=\"Patient-PatientExample.html\">Jon Doe  Male, DoB: 1981-07-16 ( Medical record number)</a></p><p><b>effective</b>: 2023-07-12 16:08:00+0000</p><p><b>issued</b>: 2023-07-12 16:08:00+0000</p><p><b>value</b>: <span title=\"Codes:{http://loinc.org LA32-8}\">No</span></p></div>"
      },
      "status" : "final",
      "category" : [{
        "coding" : [{
          "system" : "http://hl7.org/fhir/us/sdoh-clinicalcare/CodeSystem/SDOHCC-CodeSystemTemporaryCodes",
          "code" : "utility-insecurity",
          "display" : "Utility Insecurity"
        }]
      },
      {
        "coding" : [{
          "system" : "http://terminology.hl7.org/CodeSystem/observation-category",
          "code" : "social-history"
        }]
      },
      {
        "coding" : [{
          "system" : "http://terminology.hl7.org/CodeSystem/observation-category",
          "code" : "survey"
        }]
      }],
      "code" : {
        "coding" : [{
          "system" : "http://loinc.org",
          "code" : "96779-4",
          "display" : "Has the electric, gas, oil, or water company threatened to shut off services in your home in past 12 months"
        }],
        "text" : "In the past 12 months has the electric, gas, oil, or water company threatened to shut off services in your home?"
      },
      "subject" : {
        "reference" : "Patient/PatientExample"
      },
      "effectiveDateTime" : "2023-07-12T16:08:00.000Z",
      "issued" : "2023-07-12T16:08:00.000Z",
      "valueCodeableConcept" : {
        "coding" : [{
          "system" : "http://loinc.org",
          "code" : "LA32-8",
          "display" : "No"
        }]
      }
    },
    "request" : {
      "method" : "POST",
      "url" : "http://shinny.org/us/ny/hrsn/Observation/UtilityInsecurity96779-4"
    }
  },
  {
    "fullUrl" : "http://shinny.org/us/ny/hrsn/Observation/InterpersonalSafety95618-5",
    "resource" : {
      "resourceType" : "Observation",
      "id" : "InterpersonalSafety95618-5",
      "meta" : {
        "lastUpdated" : "2024-02-23T00:00:00Z",
        "profile" : ["http://test.shinny.org/us/ny/hrsn/StructureDefinition/shinny-observation-screening-response"]
      },
      "language" : "en",
      "text" : {
        "status" : "generated",
        "div" : "<div xmlns=\"http://www.w3.org/1999/xhtml\" xml:lang=\"en\" lang=\"en\"><a name=\"Observation_InterpersonalSafety95618-5\"> </a><p class=\"res-header-id\"><b>Generated Narrative: Observation InterpersonalSafety95618-5</b></p><a name=\"InterpersonalSafety95618-5\"> </a><a name=\"hcInterpersonalSafety95618-5\"> </a><a name=\"InterpersonalSafety95618-5-en-US\"> </a><div style=\"display: inline-block; background-color: #d9e0e7; padding: 6px; margin: 4px; border: 1px solid #8da1b4; border-radius: 5px; line-height: 60%\"><p style=\"margin-bottom: 0px\">Last updated: 2024-02-23 00:00:00+0000; Language: en</p><p style=\"margin-bottom: 0px\">Profile: <a href=\"StructureDefinition-shinny-observation-screening-response.html\">SHINNY Observation Screening Response Profile</a></p></div><p><b>status</b>: Final</p><p><b>category</b>: <span title=\"Codes:{http://hl7.org/fhir/us/sdoh-clinicalcare/CodeSystem/SDOHCC-CodeSystemTemporaryCodes sdoh-category-unspecified}\">Interpersonal Safety</span>, <span title=\"Codes:{http://terminology.hl7.org/CodeSystem/observation-category social-history}\">Social History</span>, <span title=\"Codes:{http://terminology.hl7.org/CodeSystem/observation-category survey}\">Survey</span></p><p><b>code</b>: <span title=\"Codes:{http://loinc.org 95618-5}\">How often does anyone, including family and friends, physically hurt you?</span></p><p><b>subject</b>: <a href=\"Patient-PatientExample.html\">Jon Doe  Male, DoB: 1981-07-16 ( Medical record number)</a></p><p><b>effective</b>: 2023-07-12 16:08:00+0000</p><p><b>issued</b>: 2023-07-12 16:08:00+0000</p><p><b>value</b>: <span title=\"Codes:{http://loinc.org LA6270-8}\">Never</span></p></div>"
      },
      "status" : "final",
      "category" : [{
        "coding" : [{
          "system" : "http://hl7.org/fhir/us/sdoh-clinicalcare/CodeSystem/SDOHCC-CodeSystemTemporaryCodes",
          "code" : "sdoh-category-unspecified",
          "display" : "SDOH Category Unspecified"
        }],
        "text" : "Interpersonal Safety"
      },
      {
        "coding" : [{
          "system" : "http://terminology.hl7.org/CodeSystem/observation-category",
          "code" : "social-history"
        }]
      },
      {
        "coding" : [{
          "system" : "http://terminology.hl7.org/CodeSystem/observation-category",
          "code" : "survey"
        }]
      }],
      "code" : {
        "coding" : [{
          "system" : "http://loinc.org",
          "code" : "95618-5",
          "display" : "Physically hurt you [HITS]"
        }],
        "text" : "How often does anyone, including family and friends, physically hurt you?"
      },
      "subject" : {
        "reference" : "Patient/PatientExample"
      },
      "effectiveDateTime" : "2023-07-12T16:08:00.000Z",
      "issued" : "2023-07-12T16:08:00.000Z",
      "valueCodeableConcept" : {
        "coding" : [{
          "system" : "http://loinc.org",
          "code" : "LA6270-8",
          "display" : "Never"
        }]
      }
    },
    "request" : {
      "method" : "POST",
      "url" : "http://shinny.org/us/ny/hrsn/Observation/InterpersonalSafety95618-5"
    }
  },
  {
    "fullUrl" : "http://shinny.org/us/ny/hrsn/Observation/InterpersonalSafety95617-7",
    "resource" : {
      "resourceType" : "Observation",
      "id" : "InterpersonalSafety95617-7",
      "meta" : {
        "lastUpdated" : "2024-02-23T00:00:00Z",
        "profile" : ["http://test.shinny.org/us/ny/hrsn/StructureDefinition/shinny-observation-screening-response"]
      },
      "language" : "en",
      "text" : {
        "status" : "generated",
        "div" : "<div xmlns=\"http://www.w3.org/1999/xhtml\" xml:lang=\"en\" lang=\"en\"><a name=\"Observation_InterpersonalSafety95617-7\"> </a><p class=\"res-header-id\"><b>Generated Narrative: Observation InterpersonalSafety95617-7</b></p><a name=\"InterpersonalSafety95617-7\"> </a><a name=\"hcInterpersonalSafety95617-7\"> </a><a name=\"InterpersonalSafety95617-7-en-US\"> </a><div style=\"display: inline-block; background-color: #d9e0e7; padding: 6px; margin: 4px; border: 1px solid #8da1b4; border-radius: 5px; line-height: 60%\"><p style=\"margin-bottom: 0px\">Last updated: 2024-02-23 00:00:00+0000; Language: en</p><p style=\"margin-bottom: 0px\">Profile: <a href=\"StructureDefinition-shinny-observation-screening-response.html\">SHINNY Observation Screening Response Profile</a></p></div><p><b>status</b>: Final</p><p><b>category</b>: <span title=\"Codes:{http://hl7.org/fhir/us/sdoh-clinicalcare/CodeSystem/SDOHCC-CodeSystemTemporaryCodes sdoh-category-unspecified}\">Interpersonal Safety</span>, <span title=\"Codes:{http://terminology.hl7.org/CodeSystem/observation-category social-history}\">Social History</span>, <span title=\"Codes:{http://terminology.hl7.org/CodeSystem/observation-category survey}\">Survey</span></p><p><b>code</b>: <span title=\"Codes:{http://loinc.org 95617-7}\">How often does anyone, including family and friends, insult or talk down to you?</span></p><p><b>subject</b>: <a href=\"Patient-PatientExample.html\">Jon Doe  Male, DoB: 1981-07-16 ( Medical record number)</a></p><p><b>effective</b>: 2023-07-12 16:08:00+0000</p><p><b>issued</b>: 2023-07-12 16:08:00+0000</p><p><b>value</b>: <span title=\"Codes:{http://loinc.org LA6270-8}\">Never</span></p></div>"
      },
      "status" : "final",
      "category" : [{
        "coding" : [{
          "system" : "http://hl7.org/fhir/us/sdoh-clinicalcare/CodeSystem/SDOHCC-CodeSystemTemporaryCodes",
          "code" : "sdoh-category-unspecified",
          "display" : "SDOH Category Unspecified"
        }],
        "text" : "Interpersonal Safety"
      },
      {
        "coding" : [{
          "system" : "http://terminology.hl7.org/CodeSystem/observation-category",
          "code" : "social-history"
        }]
      },
      {
        "coding" : [{
          "system" : "http://terminology.hl7.org/CodeSystem/observation-category",
          "code" : "survey"
        }]
      }],
      "code" : {
        "coding" : [{
          "system" : "http://loinc.org",
          "code" : "95617-7",
          "display" : "Insult you or talk down to you [HITS]"
        }],
        "text" : "How often does anyone, including family and friends, insult or talk down to you?"
      },
      "subject" : {
        "reference" : "Patient/PatientExample"
      },
      "effectiveDateTime" : "2023-07-12T16:08:00.000Z",
      "issued" : "2023-07-12T16:08:00.000Z",
      "valueCodeableConcept" : {
        "coding" : [{
          "system" : "http://loinc.org",
          "code" : "LA6270-8",
          "display" : "Never"
        }]
      }
    },
    "request" : {
      "method" : "POST",
      "url" : "http://shinny.org/us/ny/hrsn/Observation/InterpersonalSafety95617-7"
    }
  },
  {
    "fullUrl" : "http://shinny.org/us/ny/hrsn/Observation/InterpersonalSafety95616-9",
    "resource" : {
      "resourceType" : "Observation",
      "id" : "InterpersonalSafety95616-9",
      "meta" : {
        "lastUpdated" : "2024-02-23T00:00:00Z",
        "profile" : ["http://test.shinny.org/us/ny/hrsn/StructureDefinition/shinny-observation-screening-response"]
      },
      "language" : "en",
      "text" : {
        "status" : "generated",
        "div" : "<div xmlns=\"http://www.w3.org/1999/xhtml\" xml:lang=\"en\" lang=\"en\"><a name=\"Observation_InterpersonalSafety95616-9\"> </a><p class=\"res-header-id\"><b>Generated Narrative: Observation InterpersonalSafety95616-9</b></p><a name=\"InterpersonalSafety95616-9\"> </a><a name=\"hcInterpersonalSafety95616-9\"> </a><a name=\"InterpersonalSafety95616-9-en-US\"> </a><div style=\"display: inline-block; background-color: #d9e0e7; padding: 6px; margin: 4px; border: 1px solid #8da1b4; border-radius: 5px; line-height: 60%\"><p style=\"margin-bottom: 0px\">Last updated: 2024-02-23 00:00:00+0000; Language: en</p><p style=\"margin-bottom: 0px\">Profile: <a href=\"StructureDefinition-shinny-observation-screening-response.html\">SHINNY Observation Screening Response Profile</a></p></div><p><b>status</b>: Final</p><p><b>category</b>: <span title=\"Codes:{http://hl7.org/fhir/us/sdoh-clinicalcare/CodeSystem/SDOHCC-CodeSystemTemporaryCodes sdoh-category-unspecified}\">Interpersonal Safety</span>, <span title=\"Codes:{http://terminology.hl7.org/CodeSystem/observation-category social-history}\">Social History</span>, <span title=\"Codes:{http://terminology.hl7.org/CodeSystem/observation-category survey}\">Survey</span></p><p><b>code</b>: <span title=\"Codes:{http://loinc.org 95616-9}\">How often does anyone, including family and friends, threaten you with harm?</span></p><p><b>subject</b>: <a href=\"Patient-PatientExample.html\">Jon Doe  Male, DoB: 1981-07-16 ( Medical record number)</a></p><p><b>effective</b>: 2023-07-12 16:08:00+0000</p><p><b>issued</b>: 2023-07-12 16:08:00+0000</p><p><b>value</b>: <span title=\"Codes:{http://loinc.org LA6270-8}\">Never</span></p></div>"
      },
      "status" : "final",
      "category" : [{
        "coding" : [{
          "system" : "http://hl7.org/fhir/us/sdoh-clinicalcare/CodeSystem/SDOHCC-CodeSystemTemporaryCodes",
          "code" : "sdoh-category-unspecified",
          "display" : "SDOH Category Unspecified"
        }],
        "text" : "Interpersonal Safety"
      },
      {
        "coding" : [{
          "system" : "http://terminology.hl7.org/CodeSystem/observation-category",
          "code" : "social-history"
        }]
      },
      {
        "coding" : [{
          "system" : "http://terminology.hl7.org/CodeSystem/observation-category",
          "code" : "survey"
        }]
      }],
      "code" : {
        "coding" : [{
          "system" : "http://loinc.org",
          "code" : "95616-9",
          "display" : "Threaten you with physical harm [HITS]"
        }],
        "text" : "How often does anyone, including family and friends, threaten you with harm?"
      },
      "subject" : {
        "reference" : "Patient/PatientExample"
      },
      "effectiveDateTime" : "2023-07-12T16:08:00.000Z",
      "issued" : "2023-07-12T16:08:00.000Z",
      "valueCodeableConcept" : {
        "coding" : [{
          "system" : "http://loinc.org",
          "code" : "LA6270-8",
          "display" : "Never"
        }]
      }
    },
    "request" : {
      "method" : "POST",
      "url" : "http://shinny.org/us/ny/hrsn/Observation/InterpersonalSafety95616-9"
    }
  },
  {
    "fullUrl" : "http://shinny.org/us/ny/hrsn/Observation/InterpersonalSafety95615-1",
    "resource" : {
      "resourceType" : "Observation",
      "id" : "InterpersonalSafety95615-1",
      "meta" : {
        "lastUpdated" : "2024-02-23T00:00:00Z",
        "profile" : ["http://test.shinny.org/us/ny/hrsn/StructureDefinition/shinny-observation-screening-response"]
      },
      "language" : "en",
      "text" : {
        "status" : "generated",
        "div" : "<div xmlns=\"http://www.w3.org/1999/xhtml\" xml:lang=\"en\" lang=\"en\"><a name=\"Observation_InterpersonalSafety95615-1\"> </a><p class=\"res-header-id\"><b>Generated Narrative: Observation InterpersonalSafety95615-1</b></p><a name=\"InterpersonalSafety95615-1\"> </a><a name=\"hcInterpersonalSafety95615-1\"> </a><a name=\"InterpersonalSafety95615-1-en-US\"> </a><div style=\"display: inline-block; background-color: #d9e0e7; padding: 6px; margin: 4px; border: 1px solid #8da1b4; border-radius: 5px; line-height: 60%\"><p style=\"margin-bottom: 0px\">Last updated: 2024-02-23 00:00:00+0000; Language: en</p><p style=\"margin-bottom: 0px\">Profile: <a href=\"StructureDefinition-shinny-observation-screening-response.html\">SHINNY Observation Screening Response Profile</a></p></div><p><b>status</b>: Final</p><p><b>category</b>: <span title=\"Codes:{http://hl7.org/fhir/us/sdoh-clinicalcare/CodeSystem/SDOHCC-CodeSystemTemporaryCodes sdoh-category-unspecified}\">Interpersonal Safety</span>, <span title=\"Codes:{http://terminology.hl7.org/CodeSystem/observation-category social-history}\">Social History</span>, <span title=\"Codes:{http://terminology.hl7.org/CodeSystem/observation-category survey}\">Survey</span></p><p><b>code</b>: <span title=\"Codes:{http://loinc.org 95615-1}\">How often does anyone, including family and friends, scream or curse at you?</span></p><p><b>subject</b>: <a href=\"Patient-PatientExample.html\">Jon Doe  Male, DoB: 1981-07-16 ( Medical record number)</a></p><p><b>effective</b>: 2023-07-12 16:08:00+0000</p><p><b>issued</b>: 2023-07-12 16:08:00+0000</p><p><b>value</b>: <span title=\"Codes:{http://loinc.org LA6270-8}\">Never</span></p></div>"
      },
      "status" : "final",
      "category" : [{
        "coding" : [{
          "system" : "http://hl7.org/fhir/us/sdoh-clinicalcare/CodeSystem/SDOHCC-CodeSystemTemporaryCodes",
          "code" : "sdoh-category-unspecified",
          "display" : "SDOH Category Unspecified"
        }],
        "text" : "Interpersonal Safety"
      },
      {
        "coding" : [{
          "system" : "http://terminology.hl7.org/CodeSystem/observation-category",
          "code" : "social-history"
        }]
      },
      {
        "coding" : [{
          "system" : "http://terminology.hl7.org/CodeSystem/observation-category",
          "code" : "survey"
        }]
      }],
      "code" : {
        "coding" : [{
          "system" : "http://loinc.org",
          "code" : "95615-1",
          "display" : "Scream or curse at you [HITS]"
        }],
        "text" : "How often does anyone, including family and friends, scream or curse at you?"
      },
      "subject" : {
        "reference" : "Patient/PatientExample"
      },
      "effectiveDateTime" : "2023-07-12T16:08:00.000Z",
      "issued" : "2023-07-12T16:08:00.000Z",
      "valueCodeableConcept" : {
        "coding" : [{
          "system" : "http://loinc.org",
          "code" : "LA6270-8",
          "display" : "Never"
        }]
      }
    },
    "request" : {
      "method" : "POST",
      "url" : "http://shinny.org/us/ny/hrsn/Observation/InterpersonalSafety95615-1"
    }
  },
  {
    "fullUrl" : "http://shinny.org/us/ny/hrsn/Observation/InterpersonalSafety95614-4",
    "resource" : {
      "resourceType" : "Observation",
      "id" : "InterpersonalSafety95614-4",
      "meta" : {
        "lastUpdated" : "2024-02-23T00:00:00Z",
        "profile" : ["http://test.shinny.org/us/ny/hrsn/StructureDefinition/shinny-observation-screening-response"]
      },
      "language" : "en",
      "text" : {
        "status" : "generated",
        "div" : "<div xmlns=\"http://www.w3.org/1999/xhtml\" xml:lang=\"en\" lang=\"en\"><a name=\"Observation_InterpersonalSafety95614-4\"> </a><p class=\"res-header-id\"><b>Generated Narrative: Observation InterpersonalSafety95614-4</b></p><a name=\"InterpersonalSafety95614-4\"> </a><a name=\"hcInterpersonalSafety95614-4\"> </a><a name=\"InterpersonalSafety95614-4-en-US\"> </a><div style=\"display: inline-block; background-color: #d9e0e7; padding: 6px; margin: 4px; border: 1px solid #8da1b4; border-radius: 5px; line-height: 60%\"><p style=\"margin-bottom: 0px\">Last updated: 2024-02-23 00:00:00+0000; Language: en</p><p style=\"margin-bottom: 0px\">Profile: <a href=\"StructureDefinition-shinny-observation-screening-response.html\">SHINNY Observation Screening Response Profile</a></p></div><p><b>status</b>: Final</p><p><b>category</b>: <span title=\"Codes:{http://hl7.org/fhir/us/sdoh-clinicalcare/CodeSystem/SDOHCC-CodeSystemTemporaryCodes sdoh-category-unspecified}\">Interpersonal Safety</span>, <span title=\"Codes:{http://terminology.hl7.org/CodeSystem/observation-category social-history}\">Social History</span>, <span title=\"Codes:{http://terminology.hl7.org/CodeSystem/observation-category survey}\">Survey</span></p><p><b>code</b>: <span title=\"Codes:{http://loinc.org 95614-4}\">Safety total score</span></p><p><b>subject</b>: <a href=\"Patient-PatientExample.html\">Jon Doe  Male, DoB: 1981-07-16 ( Medical record number)</a></p><p><b>effective</b>: 2023-07-12 16:08:00+0000</p><p><b>issued</b>: 2023-07-12 16:08:00+0000</p><p><b>value</b>: <span title=\"Codes:\">4</span></p><p><b>derivedFrom</b>: </p><ul><li><a href=\"Observation-InterpersonalSafety95618-5.html\">Observation Physically hurt you [HITS]</a></li><li><a href=\"Observation-InterpersonalSafety95617-7.html\">Observation Insult you or talk down to you [HITS]</a></li><li><a href=\"Observation-InterpersonalSafety95616-9.html\">Observation Threaten you with physical harm [HITS]</a></li><li><a href=\"Observation-InterpersonalSafety95615-1.html\">Observation Scream or curse at you [HITS]</a></li></ul></div>"
      },
      "status" : "final",
      "category" : [{
        "coding" : [{
          "system" : "http://hl7.org/fhir/us/sdoh-clinicalcare/CodeSystem/SDOHCC-CodeSystemTemporaryCodes",
          "code" : "sdoh-category-unspecified",
          "display" : "SDOH Category Unspecified"
        }],
        "text" : "Interpersonal Safety"
      },
      {
        "coding" : [{
          "system" : "http://terminology.hl7.org/CodeSystem/observation-category",
          "code" : "social-history"
        }]
      },
      {
        "coding" : [{
          "system" : "http://terminology.hl7.org/CodeSystem/observation-category",
          "code" : "survey"
        }]
      }],
      "code" : {
        "coding" : [{
          "system" : "http://loinc.org",
          "code" : "95614-4",
          "display" : "Total score [HITS]"
        }],
        "text" : "Safety total score"
      },
      "subject" : {
        "reference" : "Patient/PatientExample"
      },
      "effectiveDateTime" : "2023-07-12T16:08:00.000Z",
      "issued" : "2023-07-12T16:08:00.000Z",
      "valueCodeableConcept" : {
        "coding" : [{
          "system" : "http://unitsofmeasure.org",
          "display" : "{Number}"
        }],
        "text" : "4"
      },
      "derivedFrom" : [{
        "reference" : "Observation/InterpersonalSafety95618-5"
      },
      {
        "reference" : "Observation/InterpersonalSafety95617-7"
      },
      {
        "reference" : "Observation/InterpersonalSafety95616-9"
      },
      {
        "reference" : "Observation/InterpersonalSafety95615-1"
      }]
    },
    "request" : {
      "method" : "POST",
      "url" : "http://shinny.org/us/ny/hrsn/Observation/InterpersonalSafety95614-4"
    }
  },
  {
    "fullUrl" : "http://shinny.org/us/ny/hrsn/Observation/AHCScreeningGroup96777-8",
    "resource" : {
      "resourceType" : "Observation",
      "id" : "AHCScreeningGroup96777-8",
      "meta" : {
        "lastUpdated" : "2024-02-23T00:00:00Z",
        "profile" : ["http://test.shinny.org/us/ny/hrsn/StructureDefinition/shinny-observation-screening-response"]
      },
      "language" : "en",
      "text" : {
        "status" : "generated",
        "div" : "<div xmlns=\"http://www.w3.org/1999/xhtml\" xml:lang=\"en\" lang=\"en\"><a name=\"Observation_AHCScreeningGroup96777-8\"> </a><p class=\"res-header-id\"><b>Generated Narrative: Observation AHCScreeningGroup96777-8</b></p><a name=\"AHCScreeningGroup96777-8\"> </a><a name=\"hcAHCScreeningGroup96777-8\"> </a><a name=\"AHCScreeningGroup96777-8-en-US\"> </a><div style=\"display: inline-block; background-color: #d9e0e7; padding: 6px; margin: 4px; border: 1px solid #8da1b4; border-radius: 5px; line-height: 60%\"><p style=\"margin-bottom: 0px\">Last updated: 2024-02-23 00:00:00+0000; Language: en</p><p style=\"margin-bottom: 0px\">Profile: <a href=\"StructureDefinition-shinny-observation-screening-response.html\">SHINNY Observation Screening Response Profile</a></p></div><p><b>partOf</b>: <a href=\"Procedure-ScreeningProcedureExample.html\">Procedure Administration of a standardized, evidence-based SDOH assessment, 5-15 minutes, not more often than every 6 months</a></p><p><b>status</b>: Final</p><p><b>category</b>: <span title=\"Codes:{http://hl7.org/fhir/us/sdoh-clinicalcare/CodeSystem/SDOHCC-CodeSystemTemporaryCodes housing-instability}, {http://hl7.org/fhir/us/sdoh-clinicalcare/CodeSystem/SDOHCC-CodeSystemTemporaryCodes inadequate-housing}, {http://hl7.org/fhir/us/sdoh-clinicalcare/CodeSystem/SDOHCC-CodeSystemTemporaryCodes food-insecurity}, {http://hl7.org/fhir/us/sdoh-clinicalcare/CodeSystem/SDOHCC-CodeSystemTemporaryCodes transportation-insecurity}, {http://hl7.org/fhir/us/sdoh-clinicalcare/CodeSystem/SDOHCC-CodeSystemTemporaryCodes sdoh-category-unspecified}\">Housing Instability</span>, <span title=\"Codes:{http://terminology.hl7.org/CodeSystem/observation-category social-history}\">Social History</span>, <span title=\"Codes:{http://terminology.hl7.org/CodeSystem/observation-category survey}\">Survey</span></p><p><b>code</b>: <span title=\"Codes:{http://loinc.org 96777-8}\">Accountable health communities (AHC) health-related social needs screening (HRSN) tool</span></p><p><b>subject</b>: <a href=\"Patient-PatientExample.html\">Jon Doe  Male, DoB: 1981-07-16 ( Medical record number)</a></p><p><b>encounter</b>: <a href=\"Encounter-EncounterExample.html\">Encounter: status = finished; class = field (ActCode#FLD); type = Direct questioning (procedure); period = 2024-02-23 00:00:00+0000 --&gt; 2024-02-23 01:00:00+0000</a></p><p><b>effective</b>: 2020-09-10 21:56:54+0000</p><p><b>issued</b>: 2020-09-10 21:56:54+0000</p><p><b>interpretation</b>: <span title=\"Codes:{http://terminology.hl7.org/CodeSystem/v3-ObservationInterpretation POS}\">Positive</span></p><p><b>hasMember</b>: </p><ul><li><a href=\"Observation-HousingInstability71802-3.html\">Observation Housing status</a></li><li><a href=\"Observation-InadequateHousing96778-6.html\">Observation Problems with place where you live</a></li><li><a href=\"Observation-FoodInsecurity88122-7.html\">Observation Within the past 12 months we worried whether our food would run out before we got money to buy more [U.S. FSS]</a></li><li><a href=\"Observation-FoodInsecurity88123-5.html\">Observation Within the past 12 months the food we bought just didn't last and we didn't have money to get more [U.S. FSS]</a></li><li><a href=\"Observation-TransportationInsecurity93030-5.html\">Observation Has lack of transportation kept you from medical appointments, meetings, work, or from getting things needed for daily living</a></li><li><a href=\"Observation-UtilityInsecurity96779-4.html\">Observation Has the electric, gas, oil, or water company threatened to shut off services in your home in past 12 months</a></li><li><a href=\"Observation-InterpersonalSafety95618-5.html\">Observation Physically hurt you [HITS]</a></li><li><a href=\"Observation-InterpersonalSafety95617-7.html\">Observation Insult you or talk down to you [HITS]</a></li><li><a href=\"Observation-InterpersonalSafety95616-9.html\">Observation Threaten you with physical harm [HITS]</a></li><li><a href=\"Observation-InterpersonalSafety95615-1.html\">Observation Scream or curse at you [HITS]</a></li><li><a href=\"Observation-InterpersonalSafety95614-4.html\">Observation Total score [HITS]</a></li></ul></div>"
      },
      "partOf" : [{
        "reference" : "Procedure/ScreeningProcedureExample"
      }],
      "status" : "final",
      "category" : [{
        "coding" : [{
          "system" : "http://hl7.org/fhir/us/sdoh-clinicalcare/CodeSystem/SDOHCC-CodeSystemTemporaryCodes",
          "code" : "housing-instability",
          "display" : "Housing Instability"
        },
        {
          "system" : "http://hl7.org/fhir/us/sdoh-clinicalcare/CodeSystem/SDOHCC-CodeSystemTemporaryCodes",
          "code" : "inadequate-housing",
          "display" : "Inadequate Housing"
        },
        {
          "system" : "http://hl7.org/fhir/us/sdoh-clinicalcare/CodeSystem/SDOHCC-CodeSystemTemporaryCodes",
          "code" : "food-insecurity",
          "display" : "Food Insecurity"
        },
        {
          "system" : "http://hl7.org/fhir/us/sdoh-clinicalcare/CodeSystem/SDOHCC-CodeSystemTemporaryCodes",
          "code" : "transportation-insecurity",
          "display" : "Transportation Insecurity"
        },
        {
          "system" : "http://hl7.org/fhir/us/sdoh-clinicalcare/CodeSystem/SDOHCC-CodeSystemTemporaryCodes",
          "code" : "sdoh-category-unspecified",
          "display" : "SDOH Category Unspecified"
        }]
      },
      {
        "coding" : [{
          "system" : "http://terminology.hl7.org/CodeSystem/observation-category",
          "code" : "social-history"
        }]
      },
      {
        "coding" : [{
          "system" : "http://terminology.hl7.org/CodeSystem/observation-category",
          "code" : "survey"
        }]
      }],
      "code" : {
        "coding" : [{
          "system" : "http://loinc.org",
          "code" : "96777-8",
          "display" : "Accountable health communities (AHC) health-related social needs screening (HRSN) tool"
        }]
      },
      "subject" : {
        "reference" : "Patient/PatientExample"
      },
      "encounter" : {
        "reference" : "Encounter/EncounterExample"
      },
      "effectiveDateTime" : "2020-09-10T21:56:54.671Z",
      "issued" : "2020-09-10T21:56:54.671Z",
      "interpretation" : [{
        "coding" : [{
          "system" : "http://terminology.hl7.org/CodeSystem/v3-ObservationInterpretation",
          "code" : "POS",
          "display" : "Positive"
        }]
      }],
      "hasMember" : [{
        "reference" : "Observation/HousingInstability71802-3"
      },
      {
        "reference" : "Observation/InadequateHousing96778-6"
      },
      {
        "reference" : "Observation/FoodInsecurity88122-7"
      },
      {
        "reference" : "Observation/FoodInsecurity88123-5"
      },
      {
        "reference" : "Observation/TransportationInsecurity93030-5"
      },
      {
        "reference" : "Observation/UtilityInsecurity96779-4"
      },
      {
        "reference" : "Observation/InterpersonalSafety95618-5"
      },
      {
        "reference" : "Observation/InterpersonalSafety95617-7"
      },
      {
        "reference" : "Observation/InterpersonalSafety95616-9"
      },
      {
        "reference" : "Observation/InterpersonalSafety95615-1"
      },
      {
        "reference" : "Observation/InterpersonalSafety95614-4"
      }]
    },
    "request" : {
      "method" : "POST",
      "url" : "http://shinny.org/us/ny/hrsn/Observation/AHCScreeningGroup96777-8"
    }
  },
  {
    "fullUrl" : "http://shinny.org/us/ny/hrsn/Procedure/ScreeningProcedureExample",
    "resource" : {
      "resourceType" : "Procedure",
      "id" : "ScreeningProcedureExample",
      "meta" : {
        "lastUpdated" : "2024-02-23T00:00:00Z",
        "profile" : ["http://test.shinny.org/us/ny/hrsn/StructureDefinition/shinny-sdoh-procedure"]
      },
      "text" : {
        "status" : "generated",
        "div" : "<div xmlns=\"http://www.w3.org/1999/xhtml\"><a name=\"Procedure_ScreeningProcedureExample\"> </a><p class=\"res-header-id\"><b>Generated Narrative: Procedure ScreeningProcedureExample</b></p><a name=\"ScreeningProcedureExample\"> </a><a name=\"hcScreeningProcedureExample\"> </a><a name=\"ScreeningProcedureExample-en-US\"> </a><div style=\"display: inline-block; background-color: #d9e0e7; padding: 6px; margin: 4px; border: 1px solid #8da1b4; border-radius: 5px; line-height: 60%\"><p style=\"margin-bottom: 0px\">Last updated: 2024-02-23 00:00:00+0000</p><p style=\"margin-bottom: 0px\">Profile: <a href=\"StructureDefinition-shinny-sdoh-procedure.html\">SHINNY SDOH Procedure Profile</a></p></div><p><b>status</b>: Completed</p><p><b>code</b>: <span title=\"Codes:{urn:oid:2.16.840.1.113883.6.285 G0136}\">SDOH Assessment</span></p><p><b>subject</b>: <a href=\"Patient-PatientExample.html\">Jon Doe  Male, DoB: 1981-07-16 ( Medical record number)</a></p><p><b>encounter</b>: <a href=\"Encounter-EncounterExample.html\">Encounter: status = finished; class = field (ActCode#FLD); type = Direct questioning (procedure); period = 2024-02-23 00:00:00+0000 --&gt; 2024-02-23 01:00:00+0000</a></p><p><b>performed</b>: 2024-07-26 17:00:00+0000 --&gt; 2024-07-26 17:45:00+0000</p><p><b>note</b>: SDOH screening conducted.</p></div>"
      },
      "status" : "completed",
      "code" : {
        "coding" : [{
          "system" : "urn:oid:2.16.840.1.113883.6.285",
          "code" : "G0136",
          "display" : "Administration of a standardized, evidence-based SDOH assessment, 5-15 minutes, not more often than every 6 months"
        }],
        "text" : "SDOH Assessment"
      },
      "subject" : {
        "reference" : "Patient/PatientExample"
      },
      "encounter" : {
        "reference" : "Encounter/EncounterExample"
      },
      "performedPeriod" : {
        "start" : "2024-07-26T17:00:00Z",
        "end" : "2024-07-26T17:45:00Z"
      },
      "note" : [{
        "text" : "SDOH screening conducted."
      }]
    },
    "request" : {
      "method" : "POST",
      "url" : "http://shinny.org/us/ny/hrsn/Procedure/ScreeningProcedureExample"
    }
  },
  {
    "fullUrl" : "http://shinny.org/us/ny/hrsn/Observation/FinancialInsecurity76513-1",
    "resource" : {
      "resourceType" : "Observation",
      "id" : "FinancialInsecurity76513-1",
      "meta" : {
        "lastUpdated" : "2024-02-23T00:00:00Z",
        "profile" : ["http://test.shinny.org/us/ny/hrsn/StructureDefinition/shinny-observation-screening-response"]
      },
      "language" : "en",
      "text" : {
        "status" : "generated",
        "div" : "<div xmlns=\"http://www.w3.org/1999/xhtml\" xml:lang=\"en\" lang=\"en\"><a name=\"Observation_FinancialInsecurity76513-1\"> </a><p class=\"res-header-id\"><b>Generated Narrative: Observation FinancialInsecurity76513-1</b></p><a name=\"FinancialInsecurity76513-1\"> </a><a name=\"hcFinancialInsecurity76513-1\"> </a><a name=\"FinancialInsecurity76513-1-en-US\"> </a><div style=\"display: inline-block; background-color: #d9e0e7; padding: 6px; margin: 4px; border: 1px solid #8da1b4; border-radius: 5px; line-height: 60%\"><p style=\"margin-bottom: 0px\">Last updated: 2024-02-23 00:00:00+0000; Language: en</p><p style=\"margin-bottom: 0px\">Profile: <a href=\"StructureDefinition-shinny-observation-screening-response.html\">SHINNY Observation Screening Response Profile</a></p></div><p><b>status</b>: Final</p><p><b>category</b>: <span title=\"Codes:{http://hl7.org/fhir/us/sdoh-clinicalcare/CodeSystem/SDOHCC-CodeSystemTemporaryCodes financial-insecurity}\">Financial Insecurity</span>, <span title=\"Codes:{http://terminology.hl7.org/CodeSystem/observation-category social-history}\">Social History</span>, <span title=\"Codes:{http://terminology.hl7.org/CodeSystem/observation-category survey}\">Survey</span></p><p><b>code</b>: <span title=\"Codes:{http://loinc.org 76513-1}\">How hard is it for you to pay for the very basics like food, housing, medical care, and heating?</span></p><p><b>subject</b>: <a href=\"Patient-PatientExample.html\">Jon Doe  Male, DoB: 1981-07-16 ( Medical record number)</a></p><p><b>effective</b>: 2023-07-12 16:08:00+0000</p><p><b>issued</b>: 2023-07-12 16:08:00+0000</p><p><b>value</b>: <span title=\"Codes:{http://loinc.org LA22683-9}\">Somewhat Hard</span></p><p><b>interpretation</b>: <span title=\"Codes:{http://terminology.hl7.org/CodeSystem/v3-ObservationInterpretation POS}\">Positive</span></p></div>"
      },
      "status" : "final",
      "category" : [{
        "coding" : [{
          "system" : "http://hl7.org/fhir/us/sdoh-clinicalcare/CodeSystem/SDOHCC-CodeSystemTemporaryCodes",
          "code" : "financial-insecurity",
          "display" : "Financial Insecurity"
        }]
      },
      {
        "coding" : [{
          "system" : "http://terminology.hl7.org/CodeSystem/observation-category",
          "code" : "social-history"
        }]
      },
      {
        "coding" : [{
          "system" : "http://terminology.hl7.org/CodeSystem/observation-category",
          "code" : "survey"
        }]
      }],
      "code" : {
        "coding" : [{
          "system" : "http://loinc.org",
          "code" : "76513-1",
          "display" : "How hard is it for you to pay for the very basics like food, housing, medical care, and heating"
        }],
        "text" : "How hard is it for you to pay for the very basics like food, housing, medical care, and heating?"
      },
      "subject" : {
        "reference" : "Patient/PatientExample"
      },
      "effectiveDateTime" : "2023-07-12T16:08:00.000Z",
      "issued" : "2023-07-12T16:08:00.000Z",
      "valueCodeableConcept" : {
        "coding" : [{
          "system" : "http://loinc.org",
          "code" : "LA22683-9",
          "display" : "Somewhat Hard"
        }]
      },
      "interpretation" : [{
        "coding" : [{
          "system" : "http://terminology.hl7.org/CodeSystem/v3-ObservationInterpretation",
          "code" : "POS",
          "display" : "Positive"
        }]
      }]
    },
    "request" : {
      "method" : "POST",
      "url" : "http://shinny.org/us/ny/hrsn/Observation/FinancialInsecurity76513-1"
    }
  },
  {
    "fullUrl" : "http://shinny.org/us/ny/hrsn/Observation/EmploymentStatus96780-2",
    "resource" : {
      "resourceType" : "Observation",
      "id" : "EmploymentStatus96780-2",
      "meta" : {
        "lastUpdated" : "2024-02-23T00:00:00Z",
        "profile" : ["http://test.shinny.org/us/ny/hrsn/StructureDefinition/shinny-observation-screening-response"]
      },
      "language" : "en",
      "text" : {
        "status" : "generated",
        "div" : "<div xmlns=\"http://www.w3.org/1999/xhtml\" xml:lang=\"en\" lang=\"en\"><a name=\"Observation_EmploymentStatus96780-2\"> </a><p class=\"res-header-id\"><b>Generated Narrative: Observation EmploymentStatus96780-2</b></p><a name=\"EmploymentStatus96780-2\"> </a><a name=\"hcEmploymentStatus96780-2\"> </a><a name=\"EmploymentStatus96780-2-en-US\"> </a><div style=\"display: inline-block; background-color: #d9e0e7; padding: 6px; margin: 4px; border: 1px solid #8da1b4; border-radius: 5px; line-height: 60%\"><p style=\"margin-bottom: 0px\">Last updated: 2024-02-23 00:00:00+0000; Language: en</p><p style=\"margin-bottom: 0px\">Profile: <a href=\"StructureDefinition-shinny-observation-screening-response.html\">SHINNY Observation Screening Response Profile</a></p></div><p><b>status</b>: Final</p><p><b>category</b>: <span title=\"Codes:{http://hl7.org/fhir/us/sdoh-clinicalcare/CodeSystem/SDOHCC-CodeSystemTemporaryCodes employment-status}\">Employment Status</span>, <span title=\"Codes:{http://terminology.hl7.org/CodeSystem/observation-category social-history}\">Social History</span>, <span title=\"Codes:{http://terminology.hl7.org/CodeSystem/observation-category survey}\">Survey</span></p><p><b>code</b>: <span title=\"Codes:{http://loinc.org 96780-2}\">Do you want help finding or keeping work or a job?</span></p><p><b>subject</b>: <a href=\"Patient-PatientExample.html\">Jon Doe  Male, DoB: 1981-07-16 ( Medical record number)</a></p><p><b>effective</b>: 2023-07-12 16:08:00+0000</p><p><b>issued</b>: 2023-07-12 16:08:00+0000</p><p><b>value</b>: <span title=\"Codes:{http://loinc.org LA31981-6}\">Yes, help finding work</span></p><p><b>interpretation</b>: <span title=\"Codes:{http://terminology.hl7.org/CodeSystem/v3-ObservationInterpretation POS}\">Positive</span></p></div>"
      },
      "status" : "final",
      "category" : [{
        "coding" : [{
          "system" : "http://hl7.org/fhir/us/sdoh-clinicalcare/CodeSystem/SDOHCC-CodeSystemTemporaryCodes",
          "code" : "employment-status",
          "display" : "Employment Status"
        }]
      },
      {
        "coding" : [{
          "system" : "http://terminology.hl7.org/CodeSystem/observation-category",
          "code" : "social-history"
        }]
      },
      {
        "coding" : [{
          "system" : "http://terminology.hl7.org/CodeSystem/observation-category",
          "code" : "survey"
        }]
      }],
      "code" : {
        "coding" : [{
          "system" : "http://loinc.org",
          "code" : "96780-2",
          "display" : "Wants help finding or keeping work or a job"
        }],
        "text" : "Do you want help finding or keeping work or a job?"
      },
      "subject" : {
        "reference" : "Patient/PatientExample"
      },
      "effectiveDateTime" : "2023-07-12T16:08:00.000Z",
      "issued" : "2023-07-12T16:08:00.000Z",
      "valueCodeableConcept" : {
        "coding" : [{
          "system" : "http://loinc.org",
          "code" : "LA31981-6",
          "display" : "Yes, help finding work"
        }]
      },
      "interpretation" : [{
        "coding" : [{
          "system" : "http://terminology.hl7.org/CodeSystem/v3-ObservationInterpretation",
          "code" : "POS",
          "display" : "Positive"
        }]
      }]
    },
    "request" : {
      "method" : "POST",
      "url" : "http://shinny.org/us/ny/hrsn/Observation/EmploymentStatus96780-2"
    }
  },
  {
    "fullUrl" : "http://shinny.org/us/ny/hrsn/Observation/SocialConnection96781-0",
    "resource" : {
      "resourceType" : "Observation",
      "id" : "SocialConnection96781-0",
      "meta" : {
        "lastUpdated" : "2024-02-23T00:00:00Z",
        "profile" : ["http://test.shinny.org/us/ny/hrsn/StructureDefinition/shinny-observation-screening-response"]
      },
      "language" : "en",
      "text" : {
        "status" : "generated",
        "div" : "<div xmlns=\"http://www.w3.org/1999/xhtml\" xml:lang=\"en\" lang=\"en\"><a name=\"Observation_SocialConnection96781-0\"> </a><p class=\"res-header-id\"><b>Generated Narrative: Observation SocialConnection96781-0</b></p><a name=\"SocialConnection96781-0\"> </a><a name=\"hcSocialConnection96781-0\"> </a><a name=\"SocialConnection96781-0-en-US\"> </a><div style=\"display: inline-block; background-color: #d9e0e7; padding: 6px; margin: 4px; border: 1px solid #8da1b4; border-radius: 5px; line-height: 60%\"><p style=\"margin-bottom: 0px\">Last updated: 2024-02-23 00:00:00+0000; Language: en</p><p style=\"margin-bottom: 0px\">Profile: <a href=\"StructureDefinition-shinny-observation-screening-response.html\">SHINNY Observation Screening Response Profile</a></p></div><p><b>status</b>: Final</p><p><b>category</b>: <span title=\"Codes:{http://hl7.org/fhir/us/sdoh-clinicalcare/CodeSystem/SDOHCC-CodeSystemTemporaryCodes social-connection}\">Social Connection</span>, <span title=\"Codes:{http://terminology.hl7.org/CodeSystem/observation-category social-history}\">Social History</span>, <span title=\"Codes:{http://terminology.hl7.org/CodeSystem/observation-category survey}\">Survey</span></p><p><b>code</b>: <span title=\"Codes:{http://loinc.org 96781-0}\">If for any reason you need help with day-to-day activities such as bathing, preparing meals, shopping, managing finances, etc., do you get the help you need?</span></p><p><b>subject</b>: <a href=\"Patient-PatientExample.html\">Jon Doe  Male, DoB: 1981-07-16 ( Medical record number)</a></p><p><b>effective</b>: 2023-07-12 16:08:00+0000</p><p><b>issued</b>: 2023-07-12 16:08:00+0000</p><p><b>value</b>: <span title=\"Codes:{http://loinc.org LA31976-6}\">I don't need any help</span></p></div>"
      },
      "status" : "final",
      "category" : [{
        "coding" : [{
          "system" : "http://hl7.org/fhir/us/sdoh-clinicalcare/CodeSystem/SDOHCC-CodeSystemTemporaryCodes",
          "code" : "social-connection",
          "display" : "Social Connection"
        }]
      },
      {
        "coding" : [{
          "system" : "http://terminology.hl7.org/CodeSystem/observation-category",
          "code" : "social-history"
        }]
      },
      {
        "coding" : [{
          "system" : "http://terminology.hl7.org/CodeSystem/observation-category",
          "code" : "survey"
        }]
      }],
      "code" : {
        "coding" : [{
          "system" : "http://loinc.org",
          "code" : "96781-0",
          "display" : "Able to get help with daily activities when needed"
        }],
        "text" : "If for any reason you need help with day-to-day activities such as bathing, preparing meals, shopping, managing finances, etc., do you get the help you need?"
      },
      "subject" : {
        "reference" : "Patient/PatientExample"
      },
      "effectiveDateTime" : "2023-07-12T16:08:00.000Z",
      "issued" : "2023-07-12T16:08:00.000Z",
      "valueCodeableConcept" : {
        "coding" : [{
          "system" : "http://loinc.org",
          "code" : "LA31976-6",
          "display" : "I don't need any help"
        }]
      }
    },
    "request" : {
      "method" : "POST",
      "url" : "http://shinny.org/us/ny/hrsn/Observation/SocialConnection96781-0"
    }
  },
  {
    "fullUrl" : "http://shinny.org/us/ny/hrsn/Observation/SocialHistory93159-2",
    "resource" : {
      "resourceType" : "Observation",
      "id" : "SocialHistory93159-2",
      "meta" : {
        "lastUpdated" : "2024-02-23T00:00:00Z",
        "profile" : ["http://test.shinny.org/us/ny/hrsn/StructureDefinition/shinny-observation-screening-response"]
      },
      "language" : "en",
      "text" : {
        "status" : "generated",
        "div" : "<div xmlns=\"http://www.w3.org/1999/xhtml\" xml:lang=\"en\" lang=\"en\"><a name=\"Observation_SocialHistory93159-2\"> </a><p class=\"res-header-id\"><b>Generated Narrative: Observation SocialHistory93159-2</b></p><a name=\"SocialHistory93159-2\"> </a><a name=\"hcSocialHistory93159-2\"> </a><a name=\"SocialHistory93159-2-en-US\"> </a><div style=\"display: inline-block; background-color: #d9e0e7; padding: 6px; margin: 4px; border: 1px solid #8da1b4; border-radius: 5px; line-height: 60%\"><p style=\"margin-bottom: 0px\">Last updated: 2024-02-23 00:00:00+0000; Language: en</p><p style=\"margin-bottom: 0px\">Profile: <a href=\"StructureDefinition-shinny-observation-screening-response.html\">SHINNY Observation Screening Response Profile</a></p></div><p><b>status</b>: Final</p><p><b>category</b>: <span title=\"Codes:{http://hl7.org/fhir/us/sdoh-clinicalcare/CodeSystem/SDOHCC-CodeSystemTemporaryCodes social-connection}\">Social Connection</span>, <span title=\"Codes:{http://terminology.hl7.org/CodeSystem/observation-category social-history}\">Social History</span>, <span title=\"Codes:{http://terminology.hl7.org/CodeSystem/observation-category survey}\">Survey</span></p><p><b>code</b>: <span title=\"Codes:{http://loinc.org 93159-2}\">How often do you feel lonely or isolated from those around you?</span></p><p><b>subject</b>: <a href=\"Patient-PatientExample.html\">Jon Doe  Male, DoB: 1981-07-16 ( Medical record number)</a></p><p><b>effective</b>: 2023-07-12 16:08:00+0000</p><p><b>issued</b>: 2023-07-12 16:08:00+0000</p><p><b>value</b>: <span title=\"Codes:{http://loinc.org LA6270-8}\">Never</span></p></div>"
      },
      "status" : "final",
      "category" : [{
        "coding" : [{
          "system" : "http://hl7.org/fhir/us/sdoh-clinicalcare/CodeSystem/SDOHCC-CodeSystemTemporaryCodes",
          "code" : "social-connection",
          "display" : "Social Connection"
        }]
      },
      {
        "coding" : [{
          "system" : "http://terminology.hl7.org/CodeSystem/observation-category",
          "code" : "social-history"
        }]
      },
      {
        "coding" : [{
          "system" : "http://terminology.hl7.org/CodeSystem/observation-category",
          "code" : "survey"
        }]
      }],
      "code" : {
        "coding" : [{
          "system" : "http://loinc.org",
          "code" : "93159-2",
          "display" : "How often do you feel lonely or isolated from those around you during assessment period [CMS Assessment]"
        }],
        "text" : "How often do you feel lonely or isolated from those around you?"
      },
      "subject" : {
        "reference" : "Patient/PatientExample"
      },
      "effectiveDateTime" : "2023-07-12T16:08:00.000Z",
      "issued" : "2023-07-12T16:08:00.000Z",
      "valueCodeableConcept" : {
        "coding" : [{
          "system" : "http://loinc.org",
          "code" : "LA6270-8",
          "display" : "Never"
        }]
      }
    },
    "request" : {
      "method" : "POST",
      "url" : "http://shinny.org/us/ny/hrsn/Observation/SocialHistory93159-2"
    }
  },
  {
    "fullUrl" : "http://shinny.org/us/ny/hrsn/Observation/LanguageFinding97027-7",
    "resource" : {
      "resourceType" : "Observation",
      "id" : "LanguageFinding97027-7",
      "meta" : {
        "lastUpdated" : "2024-02-23T00:00:00Z",
        "profile" : ["http://test.shinny.org/us/ny/hrsn/StructureDefinition/shinny-observation-screening-response"]
      },
      "language" : "en",
      "text" : {
        "status" : "generated",
        "div" : "<div xmlns=\"http://www.w3.org/1999/xhtml\" xml:lang=\"en\" lang=\"en\"><a name=\"Observation_LanguageFinding97027-7\"> </a><p class=\"res-header-id\"><b>Generated Narrative: Observation LanguageFinding97027-7</b></p><a name=\"LanguageFinding97027-7\"> </a><a name=\"hcLanguageFinding97027-7\"> </a><a name=\"LanguageFinding97027-7-en-US\"> </a><div style=\"display: inline-block; background-color: #d9e0e7; padding: 6px; margin: 4px; border: 1px solid #8da1b4; border-radius: 5px; line-height: 60%\"><p style=\"margin-bottom: 0px\">Last updated: 2024-02-23 00:00:00+0000; Language: en</p><p style=\"margin-bottom: 0px\">Profile: <a href=\"StructureDefinition-shinny-observation-screening-response.html\">SHINNY Observation Screening Response Profile</a></p></div><p><b>status</b>: Final</p><p><b>category</b>: <span title=\"Codes:{http://hl7.org/fhir/us/sdoh-clinicalcare/CodeSystem/SDOHCC-CodeSystemTemporaryCodes sdoh-category-unspecified}, {http://snomed.info/sct 106133000}\">SDOH Category Unspecified</span>, <span title=\"Codes:{http://terminology.hl7.org/CodeSystem/observation-category social-history}\">Social History</span>, <span title=\"Codes:{http://terminology.hl7.org/CodeSystem/observation-category survey}\">Survey</span></p><p><b>code</b>: <span title=\"Codes:{http://loinc.org 97027-7}\">Do you speak a language other than English at home?</span></p><p><b>subject</b>: <a href=\"Patient-PatientExample.html\">Jon Doe  Male, DoB: 1981-07-16 ( Medical record number)</a></p><p><b>effective</b>: 2023-07-12 16:08:00+0000</p><p><b>issued</b>: 2023-07-12 16:08:00+0000</p><p><b>value</b>: <span title=\"Codes:{http://loinc.org LA33-6}\">Yes</span></p></div>"
      },
      "status" : "final",
      "category" : [{
        "coding" : [{
          "system" : "http://hl7.org/fhir/us/sdoh-clinicalcare/CodeSystem/SDOHCC-CodeSystemTemporaryCodes",
          "code" : "sdoh-category-unspecified",
          "display" : "SDOH Category Unspecified"
        },
        {
          "system" : "http://snomed.info/sct",
          "code" : "106133000",
          "display" : "Language finding (finding)"
        }]
      },
      {
        "coding" : [{
          "system" : "http://terminology.hl7.org/CodeSystem/observation-category",
          "code" : "social-history"
        }]
      },
      {
        "coding" : [{
          "system" : "http://terminology.hl7.org/CodeSystem/observation-category",
          "code" : "survey"
        }]
      }],
      "code" : {
        "coding" : [{
          "system" : "http://loinc.org",
          "code" : "97027-7",
          "display" : "Speaks a language other than English at home"
        }],
        "text" : "Do you speak a language other than English at home?"
      },
      "subject" : {
        "reference" : "Patient/PatientExample"
      },
      "effectiveDateTime" : "2023-07-12T16:08:00.000Z",
      "issued" : "2023-07-12T16:08:00.000Z",
      "valueCodeableConcept" : {
        "coding" : [{
          "system" : "http://loinc.org",
          "code" : "LA33-6",
          "display" : "Yes"
        }]
      }
    },
    "request" : {
      "method" : "POST",
      "url" : "http://shinny.org/us/ny/hrsn/Observation/LanguageFinding97027-7"
    }
  },
  {
    "fullUrl" : "http://shinny.org/us/ny/hrsn/Observation/Education96782-8",
    "resource" : {
      "resourceType" : "Observation",
      "id" : "Education96782-8",
      "meta" : {
        "lastUpdated" : "2024-02-23T00:00:00Z",
        "profile" : ["http://test.shinny.org/us/ny/hrsn/StructureDefinition/shinny-observation-screening-response"]
      },
      "language" : "en",
      "text" : {
        "status" : "generated",
        "div" : "<div xmlns=\"http://www.w3.org/1999/xhtml\" xml:lang=\"en\" lang=\"en\"><a name=\"Observation_Education96782-8\"> </a><p class=\"res-header-id\"><b>Generated Narrative: Observation Education96782-8</b></p><a name=\"Education96782-8\"> </a><a name=\"hcEducation96782-8\"> </a><a name=\"Education96782-8-en-US\"> </a><div style=\"display: inline-block; background-color: #d9e0e7; padding: 6px; margin: 4px; border: 1px solid #8da1b4; border-radius: 5px; line-height: 60%\"><p style=\"margin-bottom: 0px\">Last updated: 2024-02-23 00:00:00+0000; Language: en</p><p style=\"margin-bottom: 0px\">Profile: <a href=\"StructureDefinition-shinny-observation-screening-response.html\">SHINNY Observation Screening Response Profile</a></p></div><p><b>status</b>: Final</p><p><b>category</b>: <span title=\"Codes:{http://hl7.org/fhir/us/sdoh-clinicalcare/CodeSystem/SDOHCC-CodeSystemTemporaryCodes sdoh-category-unspecified}, {http://snomed.info/sct 365458002}\">SDOH Category Unspecified</span>, <span title=\"Codes:{http://terminology.hl7.org/CodeSystem/observation-category social-history}\">Social History</span>, <span title=\"Codes:{http://terminology.hl7.org/CodeSystem/observation-category survey}\">Survey</span></p><p><b>code</b>: <span title=\"Codes:{http://loinc.org 96782-8}\">Do you want help with school or training? For example, starting or completing job training or getting a high school diploma, GED or equivalent.</span></p><p><b>subject</b>: <a href=\"Patient-PatientExample.html\">Jon Doe  Male, DoB: 1981-07-16 ( Medical record number)</a></p><p><b>effective</b>: 2023-07-12 16:08:00+0000</p><p><b>issued</b>: 2023-07-12 16:08:00+0000</p><p><b>value</b>: <span title=\"Codes:{http://loinc.org LA33-6}\">Yes</span></p><p><b>interpretation</b>: <span title=\"Codes:{http://terminology.hl7.org/CodeSystem/v3-ObservationInterpretation POS}\">Positive</span></p></div>"
      },
      "status" : "final",
      "category" : [{
        "coding" : [{
          "system" : "http://hl7.org/fhir/us/sdoh-clinicalcare/CodeSystem/SDOHCC-CodeSystemTemporaryCodes",
          "code" : "sdoh-category-unspecified",
          "display" : "SDOH Category Unspecified"
        },
        {
          "system" : "http://snomed.info/sct",
          "code" : "365458002",
          "display" : "Education and/or schooling finding"
        }]
      },
      {
        "coding" : [{
          "system" : "http://terminology.hl7.org/CodeSystem/observation-category",
          "code" : "social-history"
        }]
      },
      {
        "coding" : [{
          "system" : "http://terminology.hl7.org/CodeSystem/observation-category",
          "code" : "survey"
        }]
      }],
      "code" : {
        "coding" : [{
          "system" : "http://loinc.org",
          "code" : "96782-8",
          "display" : "Wants help with school or training"
        }],
        "text" : "Do you want help with school or training? For example, starting or completing job training or getting a high school diploma, GED or equivalent."
      },
      "subject" : {
        "reference" : "Patient/PatientExample"
      },
      "effectiveDateTime" : "2023-07-12T16:08:00.000Z",
      "issued" : "2023-07-12T16:08:00.000Z",
      "valueCodeableConcept" : {
        "coding" : [{
          "system" : "http://loinc.org",
          "code" : "LA33-6",
          "display" : "Yes"
        }]
      },
      "interpretation" : [{
        "coding" : [{
          "system" : "http://terminology.hl7.org/CodeSystem/v3-ObservationInterpretation",
          "code" : "POS",
          "display" : "Positive"
        }]
      }]
    },
    "request" : {
      "method" : "POST",
      "url" : "http://shinny.org/us/ny/hrsn/Observation/Education96782-8"
    }
  },
  {
    "fullUrl" : "http://shinny.org/us/ny/hrsn/Observation/PhysicalActivity89555-7",
    "resource" : {
      "resourceType" : "Observation",
      "id" : "PhysicalActivity89555-7",
      "meta" : {
        "lastUpdated" : "2024-02-23T00:00:00Z",
        "profile" : ["http://test.shinny.org/us/ny/hrsn/StructureDefinition/shinny-observation-screening-response"]
      },
      "language" : "en",
      "text" : {
        "status" : "generated",
        "div" : "<div xmlns=\"http://www.w3.org/1999/xhtml\" xml:lang=\"en\" lang=\"en\"><a name=\"Observation_PhysicalActivity89555-7\"> </a><p class=\"res-header-id\"><b>Generated Narrative: Observation PhysicalActivity89555-7</b></p><a name=\"PhysicalActivity89555-7\"> </a><a name=\"hcPhysicalActivity89555-7\"> </a><a name=\"PhysicalActivity89555-7-en-US\"> </a><div style=\"display: inline-block; background-color: #d9e0e7; padding: 6px; margin: 4px; border: 1px solid #8da1b4; border-radius: 5px; line-height: 60%\"><p style=\"margin-bottom: 0px\">Last updated: 2024-02-23 00:00:00+0000; Language: en</p><p style=\"margin-bottom: 0px\">Profile: <a href=\"StructureDefinition-shinny-observation-screening-response.html\">SHINNY Observation Screening Response Profile</a></p></div><p><b>status</b>: Final</p><p><b>category</b>: <span title=\"Codes:{http://hl7.org/fhir/us/sdoh-clinicalcare/CodeSystem/SDOHCC-CodeSystemTemporaryCodes sdoh-category-unspecified}, {http://snomed.info/sct 129861002}\">SDOH Category Unspecified</span>, <span title=\"Codes:{http://terminology.hl7.org/CodeSystem/observation-category social-history}\">Social History</span>, <span title=\"Codes:{http://terminology.hl7.org/CodeSystem/observation-category survey}\">Survey</span></p><p><b>code</b>: <span title=\"Codes:{http://loinc.org 89555-7}\">In the last 30 days, other than the activities you did for work, on average, how many days per week did you engage in moderate exercise (like walking fast, running, jogging, dancing, swimming, biking, or other similar activities)?</span></p><p><b>subject</b>: <a href=\"Patient-PatientExample.html\">Jon Doe  Male, DoB: 1981-07-16 ( Medical record number)</a></p><p><b>effective</b>: 2023-07-12 16:08:00+0000</p><p><b>issued</b>: 2023-07-12 16:08:00+0000</p><p><b>value</b>: <span title=\"Codes:{http://loinc.org LA6114-8}\">3</span></p></div>"
      },
      "status" : "final",
      "category" : [{
        "coding" : [{
          "system" : "http://hl7.org/fhir/us/sdoh-clinicalcare/CodeSystem/SDOHCC-CodeSystemTemporaryCodes",
          "code" : "sdoh-category-unspecified",
          "display" : "SDOH Category Unspecified"
        },
        {
          "system" : "http://snomed.info/sct",
          "code" : "129861002",
          "display" : "Physical activity finding (finding)"
        }]
      },
      {
        "coding" : [{
          "system" : "http://terminology.hl7.org/CodeSystem/observation-category",
          "code" : "social-history"
        }]
      },
      {
        "coding" : [{
          "system" : "http://terminology.hl7.org/CodeSystem/observation-category",
          "code" : "survey"
        }]
      }],
      "code" : {
        "coding" : [{
          "system" : "http://loinc.org",
          "code" : "89555-7",
          "display" : "How many days per week did you engage in moderate to strenuous physical activity in the last 30 days"
        }],
        "text" : "In the last 30 days, other than the activities you did for work, on average, how many days per week did you engage in moderate exercise (like walking fast, running, jogging, dancing, swimming, biking, or other similar activities)?"
      },
      "subject" : {
        "reference" : "Patient/PatientExample"
      },
      "effectiveDateTime" : "2023-07-12T16:08:00.000Z",
      "issued" : "2023-07-12T16:08:00.000Z",
      "valueCodeableConcept" : {
        "coding" : [{
          "system" : "http://loinc.org",
          "code" : "LA6114-8",
          "display" : "3"
        }]
      }
    },
    "request" : {
      "method" : "POST",
      "url" : "http://shinny.org/us/ny/hrsn/Observation/PhysicalActivity89555-7"
    }
  },
  {
    "fullUrl" : "http://shinny.org/us/ny/hrsn/Observation/PhysicalActivity68516-4",
    "resource" : {
      "resourceType" : "Observation",
      "id" : "PhysicalActivity68516-4",
      "meta" : {
        "lastUpdated" : "2024-02-23T00:00:00Z",
        "profile" : ["http://test.shinny.org/us/ny/hrsn/StructureDefinition/shinny-observation-screening-response"]
      },
      "language" : "en",
      "text" : {
        "status" : "generated",
        "div" : "<div xmlns=\"http://www.w3.org/1999/xhtml\" xml:lang=\"en\" lang=\"en\"><a name=\"Observation_PhysicalActivity68516-4\"> </a><p class=\"res-header-id\"><b>Generated Narrative: Observation PhysicalActivity68516-4</b></p><a name=\"PhysicalActivity68516-4\"> </a><a name=\"hcPhysicalActivity68516-4\"> </a><a name=\"PhysicalActivity68516-4-en-US\"> </a><div style=\"display: inline-block; background-color: #d9e0e7; padding: 6px; margin: 4px; border: 1px solid #8da1b4; border-radius: 5px; line-height: 60%\"><p style=\"margin-bottom: 0px\">Last updated: 2024-02-23 00:00:00+0000; Language: en</p><p style=\"margin-bottom: 0px\">Profile: <a href=\"StructureDefinition-shinny-observation-screening-response.html\">SHINNY Observation Screening Response Profile</a></p></div><p><b>status</b>: Final</p><p><b>category</b>: <span title=\"Codes:{http://hl7.org/fhir/us/sdoh-clinicalcare/CodeSystem/SDOHCC-CodeSystemTemporaryCodes sdoh-category-unspecified}, {http://snomed.info/sct 129861002}\">SDOH Category Unspecified</span>, <span title=\"Codes:{http://terminology.hl7.org/CodeSystem/observation-category social-history}\">Social History</span>, <span title=\"Codes:{http://terminology.hl7.org/CodeSystem/observation-category survey}\">Survey</span></p><p><b>code</b>: <span title=\"Codes:{http://loinc.org 68516-4}\">On average, how many minutes did you usually spend exercising at this level on one of those days?</span></p><p><b>subject</b>: <a href=\"Patient-PatientExample.html\">Jon Doe  Male, DoB: 1981-07-16 ( Medical record number)</a></p><p><b>effective</b>: 2023-07-12 16:08:00+0000</p><p><b>issued</b>: 2023-07-12 16:08:00+0000</p><p><b>value</b>: <span title=\"Codes:{http://loinc.org LA28858-1}\">40</span></p></div>"
      },
      "status" : "final",
      "category" : [{
        "coding" : [{
          "system" : "http://hl7.org/fhir/us/sdoh-clinicalcare/CodeSystem/SDOHCC-CodeSystemTemporaryCodes",
          "code" : "sdoh-category-unspecified",
          "display" : "SDOH Category Unspecified"
        },
        {
          "system" : "http://snomed.info/sct",
          "code" : "129861002",
          "display" : "Physical activity finding (finding)"
        }]
      },
      {
        "coding" : [{
          "system" : "http://terminology.hl7.org/CodeSystem/observation-category",
          "code" : "social-history"
        }]
      },
      {
        "coding" : [{
          "system" : "http://terminology.hl7.org/CodeSystem/observation-category",
          "code" : "survey"
        }]
      }],
      "code" : {
        "coding" : [{
          "system" : "http://loinc.org",
          "code" : "68516-4",
          "display" : "On those days that you engage in moderate to strenuous exercise, how many minutes, on average, do you exercise"
        }],
        "text" : "On average, how many minutes did you usually spend exercising at this level on one of those days?"
      },
      "subject" : {
        "reference" : "Patient/PatientExample"
      },
      "effectiveDateTime" : "2023-07-12T16:08:00.000Z",
      "issued" : "2023-07-12T16:08:00.000Z",
      "valueCodeableConcept" : {
        "coding" : [{
          "system" : "http://loinc.org",
          "code" : "LA28858-1",
          "display" : "40"
        }]
      }
    },
    "request" : {
      "method" : "POST",
      "url" : "http://shinny.org/us/ny/hrsn/Observation/PhysicalActivity68516-4"
    }
  },
  {
    "fullUrl" : "http://shinny.org/us/ny/hrsn/Observation/PhysicalActivityWeekly",
    "resource" : {
      "resourceType" : "Observation",
      "id" : "PhysicalActivityWeekly",
      "meta" : {
        "lastUpdated" : "2024-02-23T00:00:00Z",
        "profile" : ["http://test.shinny.org/us/ny/hrsn/StructureDefinition/shinny-observation-screening-response"]
      },
      "language" : "en",
      "text" : {
        "status" : "generated",
        "div" : "<div xmlns=\"http://www.w3.org/1999/xhtml\" xml:lang=\"en\" lang=\"en\"><a name=\"Observation_PhysicalActivityWeekly\"> </a><p class=\"res-header-id\"><b>Generated Narrative: Observation PhysicalActivityWeekly</b></p><a name=\"PhysicalActivityWeekly\"> </a><a name=\"hcPhysicalActivityWeekly\"> </a><a name=\"PhysicalActivityWeekly-en-US\"> </a><div style=\"display: inline-block; background-color: #d9e0e7; padding: 6px; margin: 4px; border: 1px solid #8da1b4; border-radius: 5px; line-height: 60%\"><p style=\"margin-bottom: 0px\">Last updated: 2024-02-23 00:00:00+0000; Language: en</p><p style=\"margin-bottom: 0px\">Profile: <a href=\"StructureDefinition-shinny-observation-screening-response.html\">SHINNY Observation Screening Response Profile</a></p></div><p><b>status</b>: Final</p><p><b>category</b>: <span title=\"Codes:{http://hl7.org/fhir/us/sdoh-clinicalcare/CodeSystem/SDOHCC-CodeSystemTemporaryCodes sdoh-category-unspecified}, {http://snomed.info/sct 129861002}\">SDOH Category Unspecified</span>, <span title=\"Codes:{http://terminology.hl7.org/CodeSystem/observation-category social-history}\">Social History</span>, <span title=\"Codes:{http://terminology.hl7.org/CodeSystem/observation-category survey}\">Survey</span></p><p><b>code</b>: <span title=\"Codes:{http://loinc.org 77594-0}\">Calculated weekly physical activity</span></p><p><b>subject</b>: <a href=\"Patient-PatientExample.html\">Jon Doe  Male, DoB: 1981-07-16 ( Medical record number)</a></p><p><b>effective</b>: 2023-07-12 16:08:00+0000</p><p><b>issued</b>: 2023-07-12 16:08:00+0000</p><p><b>value</b>: 120 minutes per week</p><p><b>derivedFrom</b>: </p><ul><li><a href=\"Observation-PhysicalActivity89555-7.html\">Observation How many days per week did you engage in moderate to strenuous physical activity in the last 30 days</a></li><li><a href=\"Observation-PhysicalActivity68516-4.html\">Observation On those days that you engage in moderate to strenuous exercise, how many minutes, on average, do you exercise</a></li></ul></div>"
      },
      "status" : "final",
      "category" : [{
        "coding" : [{
          "system" : "http://hl7.org/fhir/us/sdoh-clinicalcare/CodeSystem/SDOHCC-CodeSystemTemporaryCodes",
          "code" : "sdoh-category-unspecified",
          "display" : "SDOH Category Unspecified"
        },
        {
          "system" : "http://snomed.info/sct",
          "code" : "129861002",
          "display" : "Physical activity finding (finding)"
        }]
      },
      {
        "coding" : [{
          "system" : "http://terminology.hl7.org/CodeSystem/observation-category",
          "code" : "social-history"
        }]
      },
      {
        "coding" : [{
          "system" : "http://terminology.hl7.org/CodeSystem/observation-category",
          "code" : "survey"
        }]
      }],
      "code" : {
        "coding" : [{
          "system" : "http://loinc.org",
          "code" : "77594-0",
          "display" : "Total physical activity [IPAQ]"
        }],
        "text" : "Calculated weekly physical activity"
      },
      "subject" : {
        "reference" : "Patient/PatientExample"
      },
      "effectiveDateTime" : "2023-07-12T16:08:00.000Z",
      "issued" : "2023-07-12T16:08:00.000Z",
      "valueQuantity" : {
        "value" : 120,
        "unit" : "minutes per week",
        "system" : "http://unitsofmeasure.org"
      },
      "derivedFrom" : [{
        "reference" : "Observation/PhysicalActivity89555-7"
      },
      {
        "reference" : "Observation/PhysicalActivity68516-4"
      }]
    },
    "request" : {
      "method" : "POST",
      "url" : "http://shinny.org/us/ny/hrsn/Observation/PhysicalActivityWeekly"
    }
  },
  {
    "fullUrl" : "http://shinny.org/us/ny/hrsn/Observation/AlcoholUse68517-2",
    "resource" : {
      "resourceType" : "Observation",
      "id" : "AlcoholUse68517-2",
      "meta" : {
        "lastUpdated" : "2024-02-23T00:00:00Z",
        "profile" : ["http://test.shinny.org/us/ny/hrsn/StructureDefinition/shinny-observation-screening-response"]
      },
      "language" : "en",
      "text" : {
        "status" : "generated",
        "div" : "<div xmlns=\"http://www.w3.org/1999/xhtml\" xml:lang=\"en\" lang=\"en\"><a name=\"Observation_AlcoholUse68517-2\"> </a><p class=\"res-header-id\"><b>Generated Narrative: Observation AlcoholUse68517-2</b></p><a name=\"AlcoholUse68517-2\"> </a><a name=\"hcAlcoholUse68517-2\"> </a><a name=\"AlcoholUse68517-2-en-US\"> </a><div style=\"display: inline-block; background-color: #d9e0e7; padding: 6px; margin: 4px; border: 1px solid #8da1b4; border-radius: 5px; line-height: 60%\"><p style=\"margin-bottom: 0px\">Last updated: 2024-02-23 00:00:00+0000; Language: en</p><p style=\"margin-bottom: 0px\">Profile: <a href=\"StructureDefinition-shinny-observation-screening-response.html\">SHINNY Observation Screening Response Profile</a></p></div><p><b>status</b>: Final</p><p><b>category</b>: <span title=\"Codes:{http://hl7.org/fhir/us/sdoh-clinicalcare/CodeSystem/SDOHCC-CodeSystemTemporaryCodes sdoh-category-unspecified}, {http://snomed.info/sct 228273003}\">SDOH Category Unspecified</span>, <span title=\"Codes:{http://terminology.hl7.org/CodeSystem/observation-category social-history}\">Social History</span>, <span title=\"Codes:{http://terminology.hl7.org/CodeSystem/observation-category survey}\">Survey</span></p><p><b>code</b>: <span title=\"Codes:{http://loinc.org 68517-2}\">How many times in the past 12 months have you had 5 or more drinks in a day (males) or 4 or more drinks in a day (females)?</span></p><p><b>subject</b>: <a href=\"Patient-PatientExample.html\">Jon Doe  Male, DoB: 1981-07-16 ( Medical record number)</a></p><p><b>effective</b>: 2023-07-12 16:08:00+0000</p><p><b>issued</b>: 2023-07-12 16:08:00+0000</p><p><b>value</b>: <span title=\"Codes:{http://loinc.org LA26460-8}\">Once or twice</span></p></div>"
      },
      "status" : "final",
      "category" : [{
        "coding" : [{
          "system" : "http://hl7.org/fhir/us/sdoh-clinicalcare/CodeSystem/SDOHCC-CodeSystemTemporaryCodes",
          "code" : "sdoh-category-unspecified",
          "display" : "SDOH Category Unspecified"
        },
        {
          "system" : "http://snomed.info/sct",
          "code" : "228273003",
          "display" : "Finding relating to alcohol drinking behavior (finding)"
        }]
      },
      {
        "coding" : [{
          "system" : "http://terminology.hl7.org/CodeSystem/observation-category",
          "code" : "social-history"
        }]
      },
      {
        "coding" : [{
          "system" : "http://terminology.hl7.org/CodeSystem/observation-category",
          "code" : "survey"
        }]
      }],
      "code" : {
        "coding" : [{
          "system" : "http://loinc.org",
          "code" : "68517-2",
          "display" : "How many times in the past year have you have X or more drinks in a day"
        }],
        "text" : "How many times in the past 12 months have you had 5 or more drinks in a day (males) or 4 or more drinks in a day (females)?"
      },
      "subject" : {
        "reference" : "Patient/PatientExample"
      },
      "effectiveDateTime" : "2023-07-12T16:08:00.000Z",
      "issued" : "2023-07-12T16:08:00.000Z",
      "valueCodeableConcept" : {
        "coding" : [{
          "system" : "http://loinc.org",
          "code" : "LA26460-8",
          "display" : "Once or twice"
        }]
      }
    },
    "request" : {
      "method" : "POST",
      "url" : "http://shinny.org/us/ny/hrsn/Observation/AlcoholUse68517-2"
    }
  },
  {
    "fullUrl" : "http://shinny.org/us/ny/hrsn/Observation/TobaccoUse96842-0",
    "resource" : {
      "resourceType" : "Observation",
      "id" : "TobaccoUse96842-0",
      "meta" : {
        "lastUpdated" : "2024-02-23T00:00:00Z",
        "profile" : ["http://test.shinny.org/us/ny/hrsn/StructureDefinition/shinny-observation-screening-response"]
      },
      "language" : "en",
      "text" : {
        "status" : "generated",
        "div" : "<div xmlns=\"http://www.w3.org/1999/xhtml\" xml:lang=\"en\" lang=\"en\"><a name=\"Observation_TobaccoUse96842-0\"> </a><p class=\"res-header-id\"><b>Generated Narrative: Observation TobaccoUse96842-0</b></p><a name=\"TobaccoUse96842-0\"> </a><a name=\"hcTobaccoUse96842-0\"> </a><a name=\"TobaccoUse96842-0-en-US\"> </a><div style=\"display: inline-block; background-color: #d9e0e7; padding: 6px; margin: 4px; border: 1px solid #8da1b4; border-radius: 5px; line-height: 60%\"><p style=\"margin-bottom: 0px\">Last updated: 2024-02-23 00:00:00+0000; Language: en</p><p style=\"margin-bottom: 0px\">Profile: <a href=\"StructureDefinition-shinny-observation-screening-response.html\">SHINNY Observation Screening Response Profile</a></p></div><p><b>status</b>: Final</p><p><b>category</b>: <span title=\"Codes:{http://hl7.org/fhir/us/sdoh-clinicalcare/CodeSystem/SDOHCC-CodeSystemTemporaryCodes sdoh-category-unspecified}, {http://snomed.info/sct 365980008}\">SDOH Category Unspecified</span>, <span title=\"Codes:{http://terminology.hl7.org/CodeSystem/observation-category social-history}\">Social History</span>, <span title=\"Codes:{http://terminology.hl7.org/CodeSystem/observation-category survey}\">Survey</span></p><p><b>code</b>: <span title=\"Codes:{http://loinc.org 96842-0}\">How often have you used any tobacco product in past 12 months?</span></p><p><b>subject</b>: <a href=\"Patient-PatientExample.html\">Jon Doe  Male, DoB: 1981-07-16 ( Medical record number)</a></p><p><b>effective</b>: 2023-07-12 16:08:00+0000</p><p><b>issued</b>: 2023-07-12 16:08:00+0000</p><p><b>value</b>: <span title=\"Codes:{http://loinc.org LA26460-8}\">Once or twice</span></p></div>"
      },
      "status" : "final",
      "category" : [{
        "coding" : [{
          "system" : "http://hl7.org/fhir/us/sdoh-clinicalcare/CodeSystem/SDOHCC-CodeSystemTemporaryCodes",
          "code" : "sdoh-category-unspecified",
          "display" : "SDOH Category Unspecified"
        },
        {
          "system" : "http://snomed.info/sct",
          "code" : "365980008",
          "display" : "Finding of tobacco use and exposure (finding)"
        }]
      },
      {
        "coding" : [{
          "system" : "http://terminology.hl7.org/CodeSystem/observation-category",
          "code" : "social-history"
        }]
      },
      {
        "coding" : [{
          "system" : "http://terminology.hl7.org/CodeSystem/observation-category",
          "code" : "survey"
        }]
      }],
      "code" : {
        "coding" : [{
          "system" : "http://loinc.org",
          "code" : "96842-0",
          "display" : "How often have you used any tobacco product in past 12 months"
        }],
        "text" : "How often have you used any tobacco product in past 12 months?"
      },
      "subject" : {
        "reference" : "Patient/PatientExample"
      },
      "effectiveDateTime" : "2023-07-12T16:08:00.000Z",
      "issued" : "2023-07-12T16:08:00.000Z",
      "valueCodeableConcept" : {
        "coding" : [{
          "system" : "http://loinc.org",
          "code" : "LA26460-8",
          "display" : "Once or twice"
        }]
      }
    },
    "request" : {
      "method" : "POST",
      "url" : "http://shinny.org/us/ny/hrsn/Observation/TobaccoUse96842-0"
    }
  },
  {
    "fullUrl" : "http://shinny.org/us/ny/hrsn/Observation/SubstanceUse95530-2",
    "resource" : {
      "resourceType" : "Observation",
      "id" : "SubstanceUse95530-2",
      "meta" : {
        "lastUpdated" : "2024-02-23T00:00:00Z",
        "profile" : ["http://test.shinny.org/us/ny/hrsn/StructureDefinition/shinny-observation-screening-response"]
      },
      "language" : "en",
      "text" : {
        "status" : "generated",
        "div" : "<div xmlns=\"http://www.w3.org/1999/xhtml\" xml:lang=\"en\" lang=\"en\"><a name=\"Observation_SubstanceUse95530-2\"> </a><p class=\"res-header-id\"><b>Generated Narrative: Observation SubstanceUse95530-2</b></p><a name=\"SubstanceUse95530-2\"> </a><a name=\"hcSubstanceUse95530-2\"> </a><a name=\"SubstanceUse95530-2-en-US\"> </a><div style=\"display: inline-block; background-color: #d9e0e7; padding: 6px; margin: 4px; border: 1px solid #8da1b4; border-radius: 5px; line-height: 60%\"><p style=\"margin-bottom: 0px\">Last updated: 2024-02-23 00:00:00+0000; Language: en</p><p style=\"margin-bottom: 0px\">Profile: <a href=\"StructureDefinition-shinny-observation-screening-response.html\">SHINNY Observation Screening Response Profile</a></p></div><p><b>status</b>: Final</p><p><b>category</b>: <span title=\"Codes:{http://hl7.org/fhir/us/sdoh-clinicalcare/CodeSystem/SDOHCC-CodeSystemTemporaryCodes sdoh-category-unspecified}, {http://snomed.info/sct 409069009}\">SDOH Category Unspecified</span>, <span title=\"Codes:{http://terminology.hl7.org/CodeSystem/observation-category social-history}\">Social History</span>, <span title=\"Codes:{http://terminology.hl7.org/CodeSystem/observation-category survey}\">Survey</span></p><p><b>code</b>: <span title=\"Codes:{http://loinc.org 95530-2}\">How many times in the past year have you used prescription drugs for non-medical reasons?</span></p><p><b>subject</b>: <a href=\"Patient-PatientExample.html\">Jon Doe  Male, DoB: 1981-07-16 ( Medical record number)</a></p><p><b>effective</b>: 2023-07-12 16:08:00+0000</p><p><b>issued</b>: 2023-07-12 16:08:00+0000</p><p><b>value</b>: <span title=\"Codes:{http://loinc.org LA26460-8}\">Once or twice</span></p></div>"
      },
      "status" : "final",
      "category" : [{
        "coding" : [{
          "system" : "http://hl7.org/fhir/us/sdoh-clinicalcare/CodeSystem/SDOHCC-CodeSystemTemporaryCodes",
          "code" : "sdoh-category-unspecified",
          "display" : "SDOH Category Unspecified"
        },
        {
          "system" : "http://snomed.info/sct",
          "code" : "409069009",
          "display" : "Finding related to substance use (finding)"
        }]
      },
      {
        "coding" : [{
          "system" : "http://terminology.hl7.org/CodeSystem/observation-category",
          "code" : "social-history"
        }]
      },
      {
        "coding" : [{
          "system" : "http://terminology.hl7.org/CodeSystem/observation-category",
          "code" : "survey"
        }]
      }],
      "code" : {
        "coding" : [{
          "system" : "http://loinc.org",
          "code" : "95530-2",
          "display" : "Prescription drug use for non-medical reasons in the past year"
        }],
        "text" : "How many times in the past year have you used prescription drugs for non-medical reasons?"
      },
      "subject" : {
        "reference" : "Patient/PatientExample"
      },
      "effectiveDateTime" : "2023-07-12T16:08:00.000Z",
      "issued" : "2023-07-12T16:08:00.000Z",
      "valueCodeableConcept" : {
        "coding" : [{
          "system" : "http://loinc.org",
          "code" : "LA26460-8",
          "display" : "Once or twice"
        }]
      }
    },
    "request" : {
      "method" : "POST",
      "url" : "http://shinny.org/us/ny/hrsn/Observation/SubstanceUse95530-2"
    }
  },
  {
    "fullUrl" : "http://shinny.org/us/ny/hrsn/Observation/DrugUse68524-8",
    "resource" : {
      "resourceType" : "Observation",
      "id" : "DrugUse68524-8",
      "meta" : {
        "lastUpdated" : "2024-02-23T00:00:00Z",
        "profile" : ["http://test.shinny.org/us/ny/hrsn/StructureDefinition/shinny-observation-screening-response"]
      },
      "language" : "en",
      "text" : {
        "status" : "generated",
        "div" : "<div xmlns=\"http://www.w3.org/1999/xhtml\" xml:lang=\"en\" lang=\"en\"><a name=\"Observation_DrugUse68524-8\"> </a><p class=\"res-header-id\"><b>Generated Narrative: Observation DrugUse68524-8</b></p><a name=\"DrugUse68524-8\"> </a><a name=\"hcDrugUse68524-8\"> </a><a name=\"DrugUse68524-8-en-US\"> </a><div style=\"display: inline-block; background-color: #d9e0e7; padding: 6px; margin: 4px; border: 1px solid #8da1b4; border-radius: 5px; line-height: 60%\"><p style=\"margin-bottom: 0px\">Last updated: 2024-02-23 00:00:00+0000; Language: en</p><p style=\"margin-bottom: 0px\">Profile: <a href=\"StructureDefinition-shinny-observation-screening-response.html\">SHINNY Observation Screening Response Profile</a></p></div><p><b>status</b>: Final</p><p><b>category</b>: <span title=\"Codes:{http://hl7.org/fhir/us/sdoh-clinicalcare/CodeSystem/SDOHCC-CodeSystemTemporaryCodes sdoh-category-unspecified}, {http://snomed.info/sct 228366006}\">SDOH Category Unspecified</span>, <span title=\"Codes:{http://terminology.hl7.org/CodeSystem/observation-category social-history}\">Social History</span>, <span title=\"Codes:{http://terminology.hl7.org/CodeSystem/observation-category survey}\">Survey</span></p><p><b>code</b>: <span title=\"Codes:{http://loinc.org 68524-8}\">How many times in the past year have you used illegal drugs?</span></p><p><b>subject</b>: <a href=\"Patient-PatientExample.html\">Jon Doe  Male, DoB: 1981-07-16 ( Medical record number)</a></p><p><b>effective</b>: 2023-07-12 16:08:00+0000</p><p><b>issued</b>: 2023-07-12 16:08:00+0000</p><p><b>value</b>: <span title=\"Codes:{http://loinc.org LA26460-8}\">Once or twice</span></p></div>"
      },
      "status" : "final",
      "category" : [{
        "coding" : [{
          "system" : "http://hl7.org/fhir/us/sdoh-clinicalcare/CodeSystem/SDOHCC-CodeSystemTemporaryCodes",
          "code" : "sdoh-category-unspecified",
          "display" : "SDOH Category Unspecified"
        },
        {
          "system" : "http://snomed.info/sct",
          "code" : "228366006",
          "display" : "Finding relating to drug misuse behavior (finding)"
        }]
      },
      {
        "coding" : [{
          "system" : "http://terminology.hl7.org/CodeSystem/observation-category",
          "code" : "social-history"
        }]
      },
      {
        "coding" : [{
          "system" : "http://terminology.hl7.org/CodeSystem/observation-category",
          "code" : "survey"
        }]
      }],
      "code" : {
        "coding" : [{
          "system" : "http://loinc.org",
          "code" : "68524-8",
          "display" : "How many times in the past year have you used an illegal drug or used a prescription medication for non-medical reasons"
        }],
        "text" : "How many times in the past year have you used illegal drugs?"
      },
      "subject" : {
        "reference" : "Patient/PatientExample"
      },
      "effectiveDateTime" : "2023-07-12T16:08:00.000Z",
      "issued" : "2023-07-12T16:08:00.000Z",
      "valueCodeableConcept" : {
        "coding" : [{
          "system" : "http://loinc.org",
          "code" : "LA26460-8",
          "display" : "Once or twice"
        }]
      }
    },
    "request" : {
      "method" : "POST",
      "url" : "http://shinny.org/us/ny/hrsn/Observation/DrugUse68524-8"
    }
  },
  {
    "fullUrl" : "http://shinny.org/us/ny/hrsn/Observation/MentalState44250-9",
    "resource" : {
      "resourceType" : "Observation",
      "id" : "MentalState44250-9",
      "meta" : {
        "lastUpdated" : "2024-02-23T00:00:00Z",
        "profile" : ["http://test.shinny.org/us/ny/hrsn/StructureDefinition/shinny-observation-screening-response"]
      },
      "language" : "en",
      "text" : {
        "status" : "generated",
        "div" : "<div xmlns=\"http://www.w3.org/1999/xhtml\" xml:lang=\"en\" lang=\"en\"><a name=\"Observation_MentalState44250-9\"> </a><p class=\"res-header-id\"><b>Generated Narrative: Observation MentalState44250-9</b></p><a name=\"MentalState44250-9\"> </a><a name=\"hcMentalState44250-9\"> </a><a name=\"MentalState44250-9-en-US\"> </a><div style=\"display: inline-block; background-color: #d9e0e7; padding: 6px; margin: 4px; border: 1px solid #8da1b4; border-radius: 5px; line-height: 60%\"><p style=\"margin-bottom: 0px\">Last updated: 2024-02-23 00:00:00+0000; Language: en</p><p style=\"margin-bottom: 0px\">Profile: <a href=\"StructureDefinition-shinny-observation-screening-response.html\">SHINNY Observation Screening Response Profile</a></p></div><p><b>status</b>: Final</p><p><b>category</b>: <span title=\"Codes:{http://hl7.org/fhir/us/sdoh-clinicalcare/CodeSystem/SDOHCC-CodeSystemTemporaryCodes sdoh-category-unspecified}, {http://snomed.info/sct 36456004}\">SDOH Category Unspecified</span>, <span title=\"Codes:{http://terminology.hl7.org/CodeSystem/observation-category social-history}\">Social History</span>, <span title=\"Codes:{http://terminology.hl7.org/CodeSystem/observation-category survey}\">Survey</span></p><p><b>code</b>: <span title=\"Codes:{http://loinc.org 44250-9}\">Little interest or pleasure in doing things?</span></p><p><b>subject</b>: <a href=\"Patient-PatientExample.html\">Jon Doe  Male, DoB: 1981-07-16 ( Medical record number)</a></p><p><b>effective</b>: 2023-07-12 16:08:00+0000</p><p><b>issued</b>: 2023-07-12 16:08:00+0000</p><p><b>value</b>: <span title=\"Codes:{http://loinc.org LA6568-5}\">Not at all</span></p></div>"
      },
      "status" : "final",
      "category" : [{
        "coding" : [{
          "system" : "http://hl7.org/fhir/us/sdoh-clinicalcare/CodeSystem/SDOHCC-CodeSystemTemporaryCodes",
          "code" : "sdoh-category-unspecified",
          "display" : "SDOH Category Unspecified"
        },
        {
          "system" : "http://snomed.info/sct",
          "code" : "36456004",
          "display" : "Mental state finding (finding)"
        }]
      },
      {
        "coding" : [{
          "system" : "http://terminology.hl7.org/CodeSystem/observation-category",
          "code" : "social-history"
        }]
      },
      {
        "coding" : [{
          "system" : "http://terminology.hl7.org/CodeSystem/observation-category",
          "code" : "survey"
        }]
      }],
      "code" : {
        "coding" : [{
          "system" : "http://loinc.org",
          "code" : "44250-9",
          "display" : "Little interest or pleasure in doing things in last 2 weeks"
        }],
        "text" : "Little interest or pleasure in doing things?"
      },
      "subject" : {
        "reference" : "Patient/PatientExample"
      },
      "effectiveDateTime" : "2023-07-12T16:08:00.000Z",
      "issued" : "2023-07-12T16:08:00.000Z",
      "valueCodeableConcept" : {
        "coding" : [{
          "system" : "http://loinc.org",
          "code" : "LA6568-5",
          "display" : "Not at all"
        }]
      }
    },
    "request" : {
      "method" : "POST",
      "url" : "http://shinny.org/us/ny/hrsn/Observation/MentalState44250-9"
    }
  },
  {
    "fullUrl" : "http://shinny.org/us/ny/hrsn/Observation/MentalState44255-8",
    "resource" : {
      "resourceType" : "Observation",
      "id" : "MentalState44255-8",
      "meta" : {
        "lastUpdated" : "2024-02-23T00:00:00Z",
        "profile" : ["http://test.shinny.org/us/ny/hrsn/StructureDefinition/shinny-observation-screening-response"]
      },
      "language" : "en",
      "text" : {
        "status" : "generated",
        "div" : "<div xmlns=\"http://www.w3.org/1999/xhtml\" xml:lang=\"en\" lang=\"en\"><a name=\"Observation_MentalState44255-8\"> </a><p class=\"res-header-id\"><b>Generated Narrative: Observation MentalState44255-8</b></p><a name=\"MentalState44255-8\"> </a><a name=\"hcMentalState44255-8\"> </a><a name=\"MentalState44255-8-en-US\"> </a><div style=\"display: inline-block; background-color: #d9e0e7; padding: 6px; margin: 4px; border: 1px solid #8da1b4; border-radius: 5px; line-height: 60%\"><p style=\"margin-bottom: 0px\">Last updated: 2024-02-23 00:00:00+0000; Language: en</p><p style=\"margin-bottom: 0px\">Profile: <a href=\"StructureDefinition-shinny-observation-screening-response.html\">SHINNY Observation Screening Response Profile</a></p></div><p><b>status</b>: Final</p><p><b>category</b>: <span title=\"Codes:{http://hl7.org/fhir/us/sdoh-clinicalcare/CodeSystem/SDOHCC-CodeSystemTemporaryCodes sdoh-category-unspecified}, {http://snomed.info/sct 36456004}\">SDOH Category Unspecified</span>, <span title=\"Codes:{http://terminology.hl7.org/CodeSystem/observation-category social-history}\">Social History</span>, <span title=\"Codes:{http://terminology.hl7.org/CodeSystem/observation-category survey}\">Survey</span></p><p><b>code</b>: <span title=\"Codes:{http://loinc.org 44255-8}\">Feeling down, depressed, or hopeless?</span></p><p><b>subject</b>: <a href=\"Patient-PatientExample.html\">Jon Doe  Male, DoB: 1981-07-16 ( Medical record number)</a></p><p><b>effective</b>: 2023-07-12 16:08:00+0000</p><p><b>issued</b>: 2023-07-12 16:08:00+0000</p><p><b>value</b>: <span title=\"Codes:{http://loinc.org LA6568-5}\">Not at all</span></p></div>"
      },
      "status" : "final",
      "category" : [{
        "coding" : [{
          "system" : "http://hl7.org/fhir/us/sdoh-clinicalcare/CodeSystem/SDOHCC-CodeSystemTemporaryCodes",
          "code" : "sdoh-category-unspecified",
          "display" : "SDOH Category Unspecified"
        },
        {
          "system" : "http://snomed.info/sct",
          "code" : "36456004",
          "display" : "Mental state finding (finding)"
        }]
      },
      {
        "coding" : [{
          "system" : "http://terminology.hl7.org/CodeSystem/observation-category",
          "code" : "social-history"
        }]
      },
      {
        "coding" : [{
          "system" : "http://terminology.hl7.org/CodeSystem/observation-category",
          "code" : "survey"
        }]
      }],
      "code" : {
        "coding" : [{
          "system" : "http://loinc.org",
          "code" : "44255-8",
          "display" : "Feeling down, depressed, or hopeless in last 2 weeks"
        }],
        "text" : "Feeling down, depressed, or hopeless?"
      },
      "subject" : {
        "reference" : "Patient/PatientExample"
      },
      "effectiveDateTime" : "2023-07-12T16:08:00.000Z",
      "issued" : "2023-07-12T16:08:00.000Z",
      "valueCodeableConcept" : {
        "coding" : [{
          "system" : "http://loinc.org",
          "code" : "LA6568-5",
          "display" : "Not at all"
        }]
      }
    },
    "request" : {
      "method" : "POST",
      "url" : "http://shinny.org/us/ny/hrsn/Observation/MentalState44255-8"
    }
  },
  {
    "fullUrl" : "http://shinny.org/us/ny/hrsn/Observation/MentalStateScore",
    "resource" : {
      "resourceType" : "Observation",
      "id" : "MentalStateScore",
      "meta" : {
        "lastUpdated" : "2024-02-23T00:00:00Z",
        "profile" : ["http://test.shinny.org/us/ny/hrsn/StructureDefinition/shinny-observation-screening-response"]
      },
      "language" : "en",
      "text" : {
        "status" : "generated",
        "div" : "<div xmlns=\"http://www.w3.org/1999/xhtml\" xml:lang=\"en\" lang=\"en\"><a name=\"Observation_MentalStateScore\"> </a><p class=\"res-header-id\"><b>Generated Narrative: Observation MentalStateScore</b></p><a name=\"MentalStateScore\"> </a><a name=\"hcMentalStateScore\"> </a><a name=\"MentalStateScore-en-US\"> </a><div style=\"display: inline-block; background-color: #d9e0e7; padding: 6px; margin: 4px; border: 1px solid #8da1b4; border-radius: 5px; line-height: 60%\"><p style=\"margin-bottom: 0px\">Last updated: 2024-02-23 00:00:00+0000; Language: en</p><p style=\"margin-bottom: 0px\">Profile: <a href=\"StructureDefinition-shinny-observation-screening-response.html\">SHINNY Observation Screening Response Profile</a></p></div><p><b>status</b>: Final</p><p><b>category</b>: <span title=\"Codes:{http://hl7.org/fhir/us/sdoh-clinicalcare/CodeSystem/SDOHCC-CodeSystemTemporaryCodes sdoh-category-unspecified}, {http://snomed.info/sct 36456004}\">SDOH Category Unspecified</span>, <span title=\"Codes:{http://terminology.hl7.org/CodeSystem/observation-category social-history}\">Social History</span>, <span title=\"Codes:{http://terminology.hl7.org/CodeSystem/observation-category survey}\">Survey</span></p><p><b>code</b>: <span title=\"Codes:{http://loinc.org 71969-0}\">PROMIS-10 Global Mental Health (GMH) score T-score</span></p><p><b>subject</b>: <a href=\"Patient-PatientExample.html\">Jon Doe  Male, DoB: 1981-07-16 ( Medical record number)</a></p><p><b>effective</b>: 2023-07-12 16:08:00+0000</p><p><b>issued</b>: 2023-07-12 16:08:00+0000</p><p><b>value</b>: <span title=\"Codes:\">1</span></p><p><b>derivedFrom</b>: </p><ul><li><a href=\"Observation-MentalState44250-9.html\">Observation Little interest or pleasure in doing things in last 2 weeks</a></li><li><a href=\"Observation-MentalState44255-8.html\">Observation Feeling down, depressed, or hopeless in last 2 weeks</a></li></ul></div>"
      },
      "status" : "final",
      "category" : [{
        "coding" : [{
          "system" : "http://hl7.org/fhir/us/sdoh-clinicalcare/CodeSystem/SDOHCC-CodeSystemTemporaryCodes",
          "code" : "sdoh-category-unspecified",
          "display" : "SDOH Category Unspecified"
        },
        {
          "system" : "http://snomed.info/sct",
          "code" : "36456004",
          "display" : "Mental state finding (finding)"
        }]
      },
      {
        "coding" : [{
          "system" : "http://terminology.hl7.org/CodeSystem/observation-category",
          "code" : "social-history"
        }]
      },
      {
        "coding" : [{
          "system" : "http://terminology.hl7.org/CodeSystem/observation-category",
          "code" : "survey"
        }]
      }],
      "code" : {
        "coding" : [{
          "system" : "http://loinc.org",
          "code" : "71969-0",
          "display" : "PROMIS-10 Global Mental Health (GMH) score T-score"
        }]
      },
      "subject" : {
        "reference" : "Patient/PatientExample"
      },
      "effectiveDateTime" : "2023-07-12T16:08:00.000Z",
      "issued" : "2023-07-12T16:08:00.000Z",
      "valueCodeableConcept" : {
        "coding" : [{
          "system" : "http://unitsofmeasure.org",
          "display" : "{Number}"
        }],
        "text" : "1"
      },
      "derivedFrom" : [{
        "reference" : "Observation/MentalState44250-9"
      },
      {
        "reference" : "Observation/MentalState44255-8"
      }]
    },
    "request" : {
      "method" : "POST",
      "url" : "http://shinny.org/us/ny/hrsn/Observation/MentalStateScore"
    }
  },
  {
    "fullUrl" : "http://shinny.org/us/ny/hrsn/Observation/Stress93038-8",
    "resource" : {
      "resourceType" : "Observation",
      "id" : "Stress93038-8",
      "meta" : {
        "lastUpdated" : "2024-02-23T00:00:00Z",
        "profile" : ["http://test.shinny.org/us/ny/hrsn/StructureDefinition/shinny-observation-screening-response"]
      },
      "language" : "en",
      "text" : {
        "status" : "generated",
        "div" : "<div xmlns=\"http://www.w3.org/1999/xhtml\" xml:lang=\"en\" lang=\"en\"><a name=\"Observation_Stress93038-8\"> </a><p class=\"res-header-id\"><b>Generated Narrative: Observation Stress93038-8</b></p><a name=\"Stress93038-8\"> </a><a name=\"hcStress93038-8\"> </a><a name=\"Stress93038-8-en-US\"> </a><div style=\"display: inline-block; background-color: #d9e0e7; padding: 6px; margin: 4px; border: 1px solid #8da1b4; border-radius: 5px; line-height: 60%\"><p style=\"margin-bottom: 0px\">Last updated: 2024-02-23 00:00:00+0000; Language: en</p><p style=\"margin-bottom: 0px\">Profile: <a href=\"StructureDefinition-shinny-observation-screening-response.html\">SHINNY Observation Screening Response Profile</a></p></div><p><b>status</b>: Final</p><p><b>category</b>: <span title=\"Codes:{http://hl7.org/fhir/us/sdoh-clinicalcare/CodeSystem/SDOHCC-CodeSystemTemporaryCodes stress}\">Stress</span>, <span title=\"Codes:{http://terminology.hl7.org/CodeSystem/observation-category social-history}\">Social History</span>, <span title=\"Codes:{http://terminology.hl7.org/CodeSystem/observation-category survey}\">Survey</span></p><p><b>code</b>: <span title=\"Codes:{http://loinc.org 93038-8}\">Stress means a situation in which a person feels tense, restless, nervous, or anxious, or is unable to sleep at night because his or her mind is troubled all the time. Do you feel this kind of stress these days?</span></p><p><b>subject</b>: <a href=\"Patient-PatientExample.html\">Jon Doe  Male, DoB: 1981-07-16 ( Medical record number)</a></p><p><b>effective</b>: 2023-07-12 16:08:00+0000</p><p><b>issued</b>: 2023-07-12 16:08:00+0000</p><p><b>value</b>: <span title=\"Codes:{http://loinc.org LA6568-5}\">Not at all</span></p></div>"
      },
      "status" : "final",
      "category" : [{
        "coding" : [{
          "system" : "http://hl7.org/fhir/us/sdoh-clinicalcare/CodeSystem/SDOHCC-CodeSystemTemporaryCodes",
          "code" : "stress",
          "display" : "Stress"
        }]
      },
      {
        "coding" : [{
          "system" : "http://terminology.hl7.org/CodeSystem/observation-category",
          "code" : "social-history"
        }]
      },
      {
        "coding" : [{
          "system" : "http://terminology.hl7.org/CodeSystem/observation-category",
          "code" : "survey"
        }]
      }],
      "code" : {
        "coding" : [{
          "system" : "http://loinc.org",
          "code" : "93038-8",
          "display" : "Stress level"
        }],
        "text" : "Stress means a situation in which a person feels tense, restless, nervous, or anxious, or is unable to sleep at night because his or her mind is troubled all the time. Do you feel this kind of stress these days?"
      },
      "subject" : {
        "reference" : "Patient/PatientExample"
      },
      "effectiveDateTime" : "2023-07-12T16:08:00.000Z",
      "issued" : "2023-07-12T16:08:00.000Z",
      "valueCodeableConcept" : {
        "coding" : [{
          "system" : "http://loinc.org",
          "code" : "LA6568-5",
          "display" : "Not at all"
        }]
      }
    },
    "request" : {
      "method" : "POST",
      "url" : "http://shinny.org/us/ny/hrsn/Observation/Stress93038-8"
    }
  },
  {
    "fullUrl" : "http://shinny.org/us/ny/hrsn/Observation/Disability69858-9",
    "resource" : {
      "resourceType" : "Observation",
      "id" : "Disability69858-9",
      "meta" : {
        "lastUpdated" : "2024-02-23T00:00:00Z",
        "profile" : ["http://test.shinny.org/us/ny/hrsn/StructureDefinition/shinny-observation-screening-response"]
      },
      "language" : "en",
      "text" : {
        "status" : "generated",
        "div" : "<div xmlns=\"http://www.w3.org/1999/xhtml\" xml:lang=\"en\" lang=\"en\"><a name=\"Observation_Disability69858-9\"> </a><p class=\"res-header-id\"><b>Generated Narrative: Observation Disability69858-9</b></p><a name=\"Disability69858-9\"> </a><a name=\"hcDisability69858-9\"> </a><a name=\"Disability69858-9-en-US\"> </a><div style=\"display: inline-block; background-color: #d9e0e7; padding: 6px; margin: 4px; border: 1px solid #8da1b4; border-radius: 5px; line-height: 60%\"><p style=\"margin-bottom: 0px\">Last updated: 2024-02-23 00:00:00+0000; Language: en</p><p style=\"margin-bottom: 0px\">Profile: <a href=\"StructureDefinition-shinny-observation-screening-response.html\">SHINNY Observation Screening Response Profile</a></p></div><p><b>status</b>: Final</p><p><b>category</b>: <span title=\"Codes:{http://hl7.org/fhir/us/sdoh-clinicalcare/CodeSystem/SDOHCC-CodeSystemTemporaryCodes sdoh-category-unspecified}\">Disability</span>, <span title=\"Codes:{http://terminology.hl7.org/CodeSystem/observation-category social-history}\">Social History</span>, <span title=\"Codes:{http://terminology.hl7.org/CodeSystem/observation-category survey}\">Survey</span></p><p><b>code</b>: <span title=\"Codes:{http://loinc.org 69858-9}\">Because of a physical, mental, or emotional condition, do you have serious difficulty concentrating, remembering, or making decisions?</span></p><p><b>subject</b>: <a href=\"Patient-PatientExample.html\">Jon Doe  Male, DoB: 1981-07-16 ( Medical record number)</a></p><p><b>effective</b>: 2023-07-12 16:08:00+0000</p><p><b>issued</b>: 2023-07-12 16:08:00+0000</p><p><b>dataAbsentReason</b>: <span title=\"Codes:{http://terminology.hl7.org/CodeSystem/data-absent-reason asked-declined}\">The source was asked but declined to answer.</span></p></div>"
      },
      "status" : "final",
      "category" : [{
        "coding" : [{
          "system" : "http://hl7.org/fhir/us/sdoh-clinicalcare/CodeSystem/SDOHCC-CodeSystemTemporaryCodes",
          "code" : "sdoh-category-unspecified",
          "display" : "SDOH Category Unspecified"
        }],
        "text" : "Disability"
      },
      {
        "coding" : [{
          "system" : "http://terminology.hl7.org/CodeSystem/observation-category",
          "code" : "social-history"
        }]
      },
      {
        "coding" : [{
          "system" : "http://terminology.hl7.org/CodeSystem/observation-category",
          "code" : "survey"
        }]
      }],
      "code" : {
        "coding" : [{
          "system" : "http://loinc.org",
          "code" : "69858-9",
          "display" : "Because of a physical, mental, or emotional condition, do you have serious difficulty concentrating, remembering, or making decisions"
        }],
        "text" : "Because of a physical, mental, or emotional condition, do you have serious difficulty concentrating, remembering, or making decisions?"
      },
      "subject" : {
        "reference" : "Patient/PatientExample"
      },
      "effectiveDateTime" : "2023-07-12T16:08:00.000Z",
      "issued" : "2023-07-12T16:08:00.000Z",
      "dataAbsentReason" : {
        "coding" : [{
          "system" : "http://terminology.hl7.org/CodeSystem/data-absent-reason",
          "code" : "asked-declined",
          "display" : "Asked But Declined"
        }],
        "text" : "The source was asked but declined to answer."
      }
    },
    "request" : {
      "method" : "POST",
      "url" : "http://shinny.org/us/ny/hrsn/Observation/Disability69858-9"
    }
  },
  {
    "fullUrl" : "http://shinny.org/us/ny/hrsn/Observation/Disability69861-3",
    "resource" : {
      "resourceType" : "Observation",
      "id" : "Disability69861-3",
      "meta" : {
        "lastUpdated" : "2024-02-23T00:00:00Z",
        "profile" : ["http://test.shinny.org/us/ny/hrsn/StructureDefinition/shinny-observation-screening-response"]
      },
      "language" : "en",
      "text" : {
        "status" : "generated",
        "div" : "<div xmlns=\"http://www.w3.org/1999/xhtml\" xml:lang=\"en\" lang=\"en\"><a name=\"Observation_Disability69861-3\"> </a><p class=\"res-header-id\"><b>Generated Narrative: Observation Disability69861-3</b></p><a name=\"Disability69861-3\"> </a><a name=\"hcDisability69861-3\"> </a><a name=\"Disability69861-3-en-US\"> </a><div style=\"display: inline-block; background-color: #d9e0e7; padding: 6px; margin: 4px; border: 1px solid #8da1b4; border-radius: 5px; line-height: 60%\"><p style=\"margin-bottom: 0px\">Last updated: 2024-02-23 00:00:00+0000; Language: en</p><p style=\"margin-bottom: 0px\">Profile: <a href=\"StructureDefinition-shinny-observation-screening-response.html\">SHINNY Observation Screening Response Profile</a></p></div><p><b>status</b>: Final</p><p><b>category</b>: <span title=\"Codes:{http://hl7.org/fhir/us/sdoh-clinicalcare/CodeSystem/SDOHCC-CodeSystemTemporaryCodes sdoh-category-unspecified}\">Disability</span>, <span title=\"Codes:{http://terminology.hl7.org/CodeSystem/observation-category social-history}\">Social History</span>, <span title=\"Codes:{http://terminology.hl7.org/CodeSystem/observation-category survey}\">Survey</span></p><p><b>code</b>: <span title=\"Codes:{http://loinc.org 69861-3}\">Because of a physical, mental, or emotional condition, do you have difficulty doing errands alone such as visiting a physician's office or shopping?</span></p><p><b>subject</b>: <a href=\"Patient-PatientExample.html\">Jon Doe  Male, DoB: 1981-07-16 ( Medical record number)</a></p><p><b>effective</b>: 2023-07-12 16:08:00+0000</p><p><b>issued</b>: 2023-07-12 16:08:00+0000</p><p><b>value</b>: <span title=\"Codes:{http://loinc.org LA32-8}\">No</span></p></div>"
      },
      "status" : "final",
      "category" : [{
        "coding" : [{
          "system" : "http://hl7.org/fhir/us/sdoh-clinicalcare/CodeSystem/SDOHCC-CodeSystemTemporaryCodes",
          "code" : "sdoh-category-unspecified",
          "display" : "SDOH Category Unspecified"
        }],
        "text" : "Disability"
      },
      {
        "coding" : [{
          "system" : "http://terminology.hl7.org/CodeSystem/observation-category",
          "code" : "social-history"
        }]
      },
      {
        "coding" : [{
          "system" : "http://terminology.hl7.org/CodeSystem/observation-category",
          "code" : "survey"
        }]
      }],
      "code" : {
        "coding" : [{
          "system" : "http://loinc.org",
          "code" : "69861-3",
          "display" : "Because of a physical, mental, or emotional condition, do you have difficulty doing errands alone such as visiting a physician's office or shopping"
        }],
        "text" : "Because of a physical, mental, or emotional condition, do you have difficulty doing errands alone such as visiting a physician's office or shopping?"
      },
      "subject" : {
        "reference" : "Patient/PatientExample"
      },
      "effectiveDateTime" : "2023-07-12T16:08:00.000Z",
      "issued" : "2023-07-12T16:08:00.000Z",
      "valueCodeableConcept" : {
        "coding" : [{
          "system" : "http://loinc.org",
          "code" : "LA32-8",
          "display" : "No"
        }]
      }
    },
    "request" : {
      "method" : "POST",
      "url" : "http://shinny.org/us/ny/hrsn/Observation/Disability69861-3"
    }
  },
  {
    "fullUrl" : "http://shinny.org/us/ny/hrsn/Observation/SupplementalGroup97023-6",
    "resource" : {
      "resourceType" : "Observation",
      "id" : "SupplementalGroup97023-6",
      "meta" : {
        "lastUpdated" : "2024-02-23T00:00:00Z",
        "profile" : ["http://test.shinny.org/us/ny/hrsn/StructureDefinition/shinny-observation-screening-response"]
      },
      "language" : "en",
      "text" : {
        "status" : "generated",
        "div" : "<div xmlns=\"http://www.w3.org/1999/xhtml\" xml:lang=\"en\" lang=\"en\"><a name=\"Observation_SupplementalGroup97023-6\"> </a><p class=\"res-header-id\"><b>Generated Narrative: Observation SupplementalGroup97023-6</b></p><a name=\"SupplementalGroup97023-6\"> </a><a name=\"hcSupplementalGroup97023-6\"> </a><a name=\"SupplementalGroup97023-6-en-US\"> </a><div style=\"display: inline-block; background-color: #d9e0e7; padding: 6px; margin: 4px; border: 1px solid #8da1b4; border-radius: 5px; line-height: 60%\"><p style=\"margin-bottom: 0px\">Last updated: 2024-02-23 00:00:00+0000; Language: en</p><p style=\"margin-bottom: 0px\">Profile: <a href=\"StructureDefinition-shinny-observation-screening-response.html\">SHINNY Observation Screening Response Profile</a></p></div><p><b>status</b>: Final</p><p><b>category</b>: <span title=\"Codes:{http://hl7.org/fhir/us/sdoh-clinicalcare/CodeSystem/SDOHCC-CodeSystemTemporaryCodes financial-insecurity}, {http://hl7.org/fhir/us/sdoh-clinicalcare/CodeSystem/SDOHCC-CodeSystemTemporaryCodes employment-status}, {http://hl7.org/fhir/us/sdoh-clinicalcare/CodeSystem/SDOHCC-CodeSystemTemporaryCodes social-connection}, {http://snomed.info/sct 106133000}, {http://snomed.info/sct 365458002}, {http://snomed.info/sct 129861002}, {http://snomed.info/sct 228366006}, {http://snomed.info/sct 36456004}, {http://hl7.org/fhir/us/sdoh-clinicalcare/CodeSystem/SDOHCC-CodeSystemTemporaryCodes stress}, {http://hl7.org/fhir/us/sdoh-clinicalcare/CodeSystem/SDOHCC-CodeSystemTemporaryCodes sdoh-category-unspecified}\">Financial Insecurity</span>, <span title=\"Codes:{http://terminology.hl7.org/CodeSystem/observation-category social-history}\">Social History</span>, <span title=\"Codes:{http://terminology.hl7.org/CodeSystem/observation-category survey}\">Survey</span></p><p><b>code</b>: <span title=\"Codes:{http://loinc.org 97023-6}\">Accountable health communities (AHC) health-related social needs (HRSN) supplemental questions</span></p><p><b>subject</b>: <a href=\"Patient-PatientExample.html\">Jon Doe  Male, DoB: 1981-07-16 ( Medical record number)</a></p><p><b>encounter</b>: <a href=\"Encounter-EncounterExample.html\">Encounter: status = finished; class = field (ActCode#FLD); type = Direct questioning (procedure); period = 2024-02-23 00:00:00+0000 --&gt; 2024-02-23 01:00:00+0000</a></p><p><b>effective</b>: 2023-07-12 16:08:00+0000</p><p><b>issued</b>: 2023-07-12 16:08:00+0000</p><p><b>interpretation</b>: <span title=\"Codes:{http://terminology.hl7.org/CodeSystem/v3-ObservationInterpretation POS}\">Positive</span></p><p><b>hasMember</b>: </p><ul><li><a href=\"Observation-FinancialInsecurity76513-1.html\">Observation How hard is it for you to pay for the very basics like food, housing, medical care, and heating</a></li><li><a href=\"Observation-EmploymentStatus96780-2.html\">Observation Wants help finding or keeping work or a job</a></li><li><a href=\"Observation-SocialConnection96781-0.html\">Observation Able to get help with daily activities when needed</a></li><li><a href=\"Observation-SocialHistory93159-2.html\">Observation How often do you feel lonely or isolated from those around you during assessment period [CMS Assessment]</a></li><li><a href=\"Observation-LanguageFinding97027-7.html\">Observation Speaks a language other than English at home</a></li><li><a href=\"Observation-Education96782-8.html\">Observation Wants help with school or training</a></li><li><a href=\"Observation-PhysicalActivity89555-7.html\">Observation How many days per week did you engage in moderate to strenuous physical activity in the last 30 days</a></li><li><a href=\"Observation-PhysicalActivity68516-4.html\">Observation On those days that you engage in moderate to strenuous exercise, how many minutes, on average, do you exercise</a></li><li><a href=\"Observation-PhysicalActivityWeekly.html\">Observation Total physical activity [IPAQ]</a></li><li><a href=\"Observation-AlcoholUse68517-2.html\">Observation How many times in the past year have you have X or more drinks in a day</a></li><li><a href=\"Observation-TobaccoUse96842-0.html\">Observation How often have you used any tobacco product in past 12 months</a></li><li><a href=\"Observation-SubstanceUse95530-2.html\">Observation Prescription drug use for non-medical reasons in the past year</a></li><li><a href=\"Observation-DrugUse68524-8.html\">Observation How many times in the past year have you used an illegal drug or used a prescription medication for non-medical reasons</a></li><li><a href=\"Observation-MentalState44250-9.html\">Observation Little interest or pleasure in doing things in last 2 weeks</a></li><li><a href=\"Observation-MentalState44255-8.html\">Observation Feeling down, depressed, or hopeless in last 2 weeks</a></li><li><a href=\"Observation-MentalStateScore.html\">Observation PROMIS-10 Global Mental Health (GMH) score T-score</a></li><li><a href=\"Observation-Stress93038-8.html\">Observation Stress level</a></li><li><a href=\"Observation-Disability69858-9.html\">Observation Because of a physical, mental, or emotional condition, do you have serious difficulty concentrating, remembering, or making decisions</a></li><li><a href=\"Observation-Disability69861-3.html\">Observation Because of a physical, mental, or emotional condition, do you have difficulty doing errands alone such as visiting a physician's office or shopping</a></li></ul></div>"
      },
      "status" : "final",
      "category" : [{
        "coding" : [{
          "system" : "http://hl7.org/fhir/us/sdoh-clinicalcare/CodeSystem/SDOHCC-CodeSystemTemporaryCodes",
          "code" : "financial-insecurity",
          "display" : "Financial Insecurity"
        },
        {
          "system" : "http://hl7.org/fhir/us/sdoh-clinicalcare/CodeSystem/SDOHCC-CodeSystemTemporaryCodes",
          "code" : "employment-status",
          "display" : "Employment Status"
        },
        {
          "system" : "http://hl7.org/fhir/us/sdoh-clinicalcare/CodeSystem/SDOHCC-CodeSystemTemporaryCodes",
          "code" : "social-connection",
          "display" : "Social Connection"
        },
        {
          "system" : "http://snomed.info/sct",
          "code" : "106133000",
          "display" : "Language finding (finding)"
        },
        {
          "system" : "http://snomed.info/sct",
          "code" : "365458002",
          "display" : "Education and/or schooling finding"
        },
        {
          "system" : "http://snomed.info/sct",
          "code" : "129861002",
          "display" : "Physical activity finding (finding)"
        },
        {
          "system" : "http://snomed.info/sct",
          "code" : "228366006",
          "display" : "Finding relating to drug misuse behavior (finding)"
        },
        {
          "system" : "http://snomed.info/sct",
          "code" : "36456004",
          "display" : "Mental state finding (finding)"
        },
        {
          "system" : "http://hl7.org/fhir/us/sdoh-clinicalcare/CodeSystem/SDOHCC-CodeSystemTemporaryCodes",
          "code" : "stress",
          "display" : "Stress"
        },
        {
          "system" : "http://hl7.org/fhir/us/sdoh-clinicalcare/CodeSystem/SDOHCC-CodeSystemTemporaryCodes",
          "code" : "sdoh-category-unspecified",
          "display" : "SDOH Category Unspecified"
        }]
      },
      {
        "coding" : [{
          "system" : "http://terminology.hl7.org/CodeSystem/observation-category",
          "code" : "social-history"
        }]
      },
      {
        "coding" : [{
          "system" : "http://terminology.hl7.org/CodeSystem/observation-category",
          "code" : "survey"
        }]
      }],
      "code" : {
        "coding" : [{
          "system" : "http://loinc.org",
          "code" : "97023-6",
          "display" : "Accountable health communities (AHC) health-related social needs (HRSN) supplemental questions"
        }]
      },
      "subject" : {
        "reference" : "Patient/PatientExample"
      },
      "encounter" : {
        "reference" : "Encounter/EncounterExample"
      },
      "effectiveDateTime" : "2023-07-12T16:08:00.000Z",
      "issued" : "2023-07-12T16:08:00.000Z",
      "interpretation" : [{
        "coding" : [{
          "system" : "http://terminology.hl7.org/CodeSystem/v3-ObservationInterpretation",
          "code" : "POS",
          "display" : "Positive"
        }]
      }],
      "hasMember" : [{
        "reference" : "Observation/FinancialInsecurity76513-1"
      },
      {
        "reference" : "Observation/EmploymentStatus96780-2"
      },
      {
        "reference" : "Observation/SocialConnection96781-0"
      },
      {
        "reference" : "Observation/SocialHistory93159-2"
      },
      {
        "reference" : "Observation/LanguageFinding97027-7"
      },
      {
        "reference" : "Observation/Education96782-8"
      },
      {
        "reference" : "Observation/PhysicalActivity89555-7"
      },
      {
        "reference" : "Observation/PhysicalActivity68516-4"
      },
      {
        "reference" : "Observation/PhysicalActivityWeekly"
      },
      {
        "reference" : "Observation/AlcoholUse68517-2"
      },
      {
        "reference" : "Observation/TobaccoUse96842-0"
      },
      {
        "reference" : "Observation/SubstanceUse95530-2"
      },
      {
        "reference" : "Observation/DrugUse68524-8"
      },
      {
        "reference" : "Observation/MentalState44250-9"
      },
      {
        "reference" : "Observation/MentalState44255-8"
      },
      {
        "reference" : "Observation/MentalStateScore"
      },
      {
        "reference" : "Observation/Stress93038-8"
      },
      {
        "reference" : "Observation/Disability69858-9"
      },
      {
        "reference" : "Observation/Disability69861-3"
      }]
    },
    "request" : {
      "method" : "POST",
      "url" : "http://shinny.org/us/ny/hrsn/ObservationResponseSupplementalGroup97023-6"
    }
  },
  {
    "fullUrl" : "http://shinny.org/us/ny/hrsn/QuestionnaireResponse/SHINNYDisablityQuestionnaireResponse",
    "resource" : {
      "resourceType" : "QuestionnaireResponse",
      "id" : "SHINNYDisablityQuestionnaireResponse",
      "meta" : {
        "lastUpdated" : "2024-02-23T00:00:00Z"
      },
      "text" : {
        "status" : "generated",
        "div" : "<div xmlns=\"http://www.w3.org/1999/xhtml\"><a name=\"QuestionnaireResponse_SHINNYDisablityQuestionnaireResponse\"> </a><p class=\"res-header-id\"><b>Generated Narrative: QuestionnaireResponse SHINNYDisablityQuestionnaireResponse</b></p><a name=\"SHINNYDisablityQuestionnaireResponse\"> </a><a name=\"hcSHINNYDisablityQuestionnaireResponse\"> </a><a name=\"SHINNYDisablityQuestionnaireResponse-en-US\"> </a><div style=\"display: inline-block; background-color: #d9e0e7; padding: 6px; margin: 4px; border: 1px solid #8da1b4; border-radius: 5px; line-height: 60%\"><p style=\"margin-bottom: 0px\">Last updated: 2024-02-23 00:00:00+0000</p></div><table border=\"1\" cellpadding=\"0\" cellspacing=\"0\" style=\"border: 1px #F0F0F0 solid; font-size: 11px; font-family: verdana; vertical-align: top;\"><tr style=\"border: 2px #F0F0F0 solid; font-size: 11px; font-family: verdana; vertical-align: top\"><th style=\"vertical-align: top; text-align : left; background-color: white; border: 1px #F0F0F0 solid; padding:0px 4px 0px 4px; padding-top: 3px; padding-bottom: 3px\" class=\"hierarchy\"><a href=\"http://hl7.org/fhir/R4/formats.html#table\" title=\"The linkID for the item\">LinkID</a></th><th style=\"vertical-align: top; text-align : left; background-color: white; border: 1px #F0F0F0 solid; padding:0px 4px 0px 4px; padding-top: 3px; padding-bottom: 3px\" class=\"hierarchy\"><a href=\"http://hl7.org/fhir/R4/formats.html#table\" title=\"Text for the item\">Text</a></th><th style=\"vertical-align: top; text-align : left; background-color: white; border: 1px #F0F0F0 solid; padding:0px 4px 0px 4px; padding-top: 3px; padding-bottom: 3px\" class=\"hierarchy\"><a href=\"http://hl7.org/fhir/R4/formats.html#table\" title=\"Minimum and Maximum # of times the item can appear in the instance\">Definition</a></th><th style=\"vertical-align: top; text-align : left; background-color: white; border: 1px #F0F0F0 solid; padding:0px 4px 0px 4px; padding-top: 3px; padding-bottom: 3px\" class=\"hierarchy\"><a href=\"http://hl7.org/fhir/R4/formats.html#table\" title=\"The type of the item\">Answer</a><span style=\"float: right\"><a href=\"http://hl7.org/fhir/R4/formats.html#table\" title=\"Legend for this format\"><img src=\"data:image/png;base64,\" alt=\"doco\" style=\"background-color: inherit\"/></a></span></th></tr><tr style=\"border: 1px #F0F0F0 solid; padding:0px; vertical-align: top; background-color: white\"><td style=\"vertical-align: top; text-align : left; background-color: white; border: 1px #F0F0F0 solid; padding:0px 4px 0px 4px; white-space: nowrap; background-image: url(tbl_bck1.png)\" class=\"hierarchy\"><img src=\"tbl_spacer.png\" alt=\".\" style=\"background-color: inherit\" class=\"hierarchy\"/><img src=\"icon_q_root.gif\" alt=\".\" style=\"background-color: white; background-color: inherit\" title=\"QuestionnaireResponseRoot\" class=\"hierarchy\"/> SHINNYDisablityQuestionnaireResponse</td><td style=\"vertical-align: top; text-align : left; background-color: white; border: 1px #F0F0F0 solid; padding:0px 4px 0px 4px\" class=\"hierarchy\"></td><td style=\"vertical-align: top; text-align : left; background-color: white; border: 1px #F0F0F0 solid; padding:0px 4px 0px 4px\" class=\"hierarchy\"></td><td style=\"vertical-align: top; text-align : left; background-color: white; border: 1px #F0F0F0 solid; padding:0px 4px 0px 4px\" class=\"hierarchy\">Questionnaire:<a href=\"Questionnaire-SHINNYDisablityQuestionnaire.html\">Questionnaire[http://shinny.org/us/ny/hrsn/Questionnaire/SHINNYDisablityQuestionnaire|1.3.0]</a></td></tr>\r\n<tr style=\"border: 1px #F0F0F0 solid; padding:0px; vertical-align: top; background-color: #F7F7F7\"><td style=\"vertical-align: top; text-align : left; background-color: #F7F7F7; border: 1px #F0F0F0 solid; padding:0px 4px 0px 4px; white-space: nowrap; background-image: url(tbl_bck01.png)\" class=\"hierarchy\"><img src=\"tbl_spacer.png\" alt=\".\" style=\"background-color: inherit\" class=\"hierarchy\"/><img src=\"tbl_vjoin_end.png\" alt=\".\" style=\"background-color: inherit\" class=\"hierarchy\"/><img src=\"icon-q-group.png\" alt=\".\" style=\"background-color: #F7F7F7; background-color: inherit\" title=\"Group\" class=\"hierarchy\"/> disability-questionnaire</td><td style=\"vertical-align: top; text-align : left; background-color: #F7F7F7; border: 1px #F0F0F0 solid; padding:0px 4px 0px 4px\" class=\"hierarchy\">Captures responses about a patient's disability mobility.</td><td style=\"vertical-align: top; text-align : left; background-color: #F7F7F7; border: 1px #F0F0F0 solid; padding:0px 4px 0px 4px\" class=\"hierarchy\"/><td style=\"vertical-align: top; text-align : left; background-color: #F7F7F7; border: 1px #F0F0F0 solid; padding:0px 4px 0px 4px\" class=\"hierarchy\"/></tr>\r\n<tr style=\"border: 1px #F0F0F0 solid; padding:0px; vertical-align: top; background-color: white\"><td style=\"vertical-align: top; text-align : left; background-color: white; border: 1px #F0F0F0 solid; padding:0px 4px 0px 4px; white-space: nowrap; background-image: url(tbl_bck001.png)\" class=\"hierarchy\"><img src=\"tbl_spacer.png\" alt=\".\" style=\"background-color: inherit\" class=\"hierarchy\"/><img src=\"tbl_blank.png\" alt=\".\" style=\"background-color: inherit\" class=\"hierarchy\"/><img src=\"tbl_vjoin_end.png\" alt=\".\" style=\"background-color: inherit\" class=\"hierarchy\"/><img src=\"icon-q-group.png\" alt=\".\" style=\"background-color: white; background-color: inherit\" title=\"Group\" class=\"hierarchy\"/> disability-questions</td><td style=\"vertical-align: top; text-align : left; background-color: white; border: 1px #F0F0F0 solid; padding:0px 4px 0px 4px\" class=\"hierarchy\">Captures a collection of screening responses about a patient's mobility and self-care.</td><td style=\"vertical-align: top; text-align : left; background-color: white; border: 1px #F0F0F0 solid; padding:0px 4px 0px 4px\" class=\"hierarchy\"/><td style=\"vertical-align: top; text-align : left; background-color: white; border: 1px #F0F0F0 solid; padding:0px 4px 0px 4px\" class=\"hierarchy\"/></tr>\r\n<tr style=\"border: 1px #F0F0F0 solid; padding:0px; vertical-align: top; background-color: #F7F7F7\"><td style=\"vertical-align: top; text-align : left; background-color: #F7F7F7; border: 1px #F0F0F0 solid; padding:0px 4px 0px 4px; white-space: nowrap; background-image: url(tbl_bck0000.png)\" class=\"hierarchy\"><img src=\"tbl_spacer.png\" alt=\".\" style=\"background-color: inherit\" class=\"hierarchy\"/><img src=\"tbl_blank.png\" alt=\".\" style=\"background-color: inherit\" class=\"hierarchy\"/><img src=\"tbl_blank.png\" alt=\".\" style=\"background-color: inherit\" class=\"hierarchy\"/><img src=\"tbl_vjoin_end.png\" alt=\".\" style=\"background-color: inherit\" class=\"hierarchy\"/><img src=\"icon-q-string.png\" alt=\".\" style=\"background-color: #F7F7F7; background-color: inherit\" title=\"Item\" class=\"hierarchy\"/> 69859-7</td><td style=\"vertical-align: top; text-align : left; background-color: #F7F7F7; border: 1px #F0F0F0 solid; padding:0px 4px 0px 4px\" class=\"hierarchy\">Do you have serious difficulty walking or climbing stairs? (5 years old or older)</td><td style=\"vertical-align: top; text-align : left; background-color: #F7F7F7; border: 1px #F0F0F0 solid; padding:0px 4px 0px 4px\" class=\"hierarchy\"/><td style=\"vertical-align: top; text-align : left; background-color: #F7F7F7; border: 1px #F0F0F0 solid; padding:0px 4px 0px 4px\" class=\"hierarchy\"><span><span><a href=\"https://loinc.org/LA32-8\">LOINC LA32-8</a>: No</span></span></td></tr>\r\n<tr><td colspan=\"4\" class=\"hierarchy\"><br/><a href=\"http://hl7.org/fhir/R4/formats.html#table\" title=\"Legend for this format\"><img src=\"data:image/png;base64,\" alt=\"doco\" style=\"background-color: inherit\"/> Documentation for this format</a></td></tr></table></div>"
      },
      "questionnaire" : "http://shinny.org/us/ny/hrsn/Questionnaire/SHINNYDisablityQuestionnaire",
      "status" : "completed",
      "subject" : {
        "reference" : "Patient/PatientExample"
      },
      "encounter" : {
        "reference" : "Encounter/EncounterExample"
      },
      "authored" : "2024-01-01T00:00:00Z",
      "item" : [{
        "linkId" : "disability-questionnaire",
        "text" : "Captures responses about a patient's disability mobility.",
        "item" : [{
          "linkId" : "disability-questions",
          "text" : "Captures a collection of screening responses about a patient's mobility and self-care.",
          "item" : [{
            "linkId" : "69859-7",
            "text" : "Do you have serious difficulty walking or climbing stairs? (5 years old or older)",
            "answer" : [{
              "valueCoding" : {
                "system" : "http://loinc.org",
                "code" : "LA32-8",
                "display" : "No"
              }
            }]
          }]
        }]
      }]
    },
    "request" : {
      "method" : "POST",
      "url" : "http://shinny.org/us/ny/hrsn/QuestionnaireResponse/SHINNYDisablityQuestionnaireResponse"
    }
  },
  {
    "fullUrl" : "http://shinny.org/us/ny/hrsn//Procedure/ScreeningProcedureExample",
    "resource" : {
      "resourceType" : "Procedure",
      "id" : "ScreeningProcedureExample",
      "meta" : {
        "lastUpdated" : "2024-02-23T00:00:00Z",
        "profile" : ["http://test.shinny.org/us/ny/hrsn/StructureDefinition/shinny-sdoh-procedure"]
      },
      "text" : {
        "status" : "generated",
        "div" : "<div xmlns=\"http://www.w3.org/1999/xhtml\"><a name=\"Procedure_ScreeningProcedureExample\"> </a><p class=\"res-header-id\"><b>Generated Narrative: Procedure ScreeningProcedureExample</b></p><div style=\"display: inline-block; background-color: #d9e0e7; padding: 6px; margin: 4px; border: 1px solid #8da1b4; border-radius: 5px; line-height: 60%\"><p style=\"margin-bottom: 0px\">Last updated: 2024-02-23 00:00:00+0000</p><p style=\"margin-bottom: 0px\">Profile: <a href=\"StructureDefinition-shinny-sdoh-procedure.html\">SHINNY SDOH Procedure Profile</a></p></div><p><b>status</b>: Completed</p><p><b>code</b>: <span title=\"Codes:{urn:oid:2.16.840.1.113883.6.285 G0136}\">SDOH Assessment</span></p><p><b>subject</b>: <a href=\"Patient-PatientExample.html\">Jon Doe  Male, DoB: 1981-07-16 ( Medical record number)</a></p><p><b>encounter</b>: <a href=\"Encounter-EncounterExample.html\">Encounter: status = finished; class = field (ActCode#FLD); type = Direct questioning (procedure); period = 2024-02-23 00:00:00+0000 --&gt; 2024-02-23 01:00:00+0000</a></p><p><b>performed</b>: 2024-07-26 17:00:00+0000 --&gt; 2024-07-26 17:45:00+0000</p><p><b>note</b>: SDOH screening conducted.</p></div>"
      },
      "status" : "completed",
      "code" : {
        "coding" : [{
          "system" : "urn:oid:2.16.840.1.113883.6.285",
          "code" : "G0136",
          "display" : "Administration of a standardized, evidence-based SDOH assessment, 5-15 minutes, not more often than every 6 months"
        }],
        "text" : "SDOH Assessment"
      },
      "subject" : {
        "reference" : "Patient/PatientExample"
      },
      "encounter" : {
        "reference" : "Encounter/EncounterExample"
      },
      "performedPeriod" : {
        "start" : "2024-07-26T17:00:00Z",
        "end" : "2024-07-26T17:45:00Z"
      },
      "note" : [{
        "text" : "SDOH screening conducted."
      }]
    },
    "request" : {
      "method" : "POST",
      "url" : "http://shinny.org/us/ny/hrsn/Procedure/ScreeningProcedureExample"
    }
  }]
}